Accelerometer TS,Accelerometer X,Accelerometer Y,Accelerometer Z,Gyroscope TS,Gyroscope X,Gyroscope Y,Gyroscope Z
0.0,-0.1843535304069519,9.725247383117676,-1.0438719987869263,0.0,-0.001065264455974102,0.00532632227987051,0.004261057823896408
2.5300000000000002,-0.19153612852096558,9.732429504394531,-1.0606313943862915,2.5300000000000002,0.002130528911948204,0.004261057823896408,0.003195793367922306
7.589,-0.16759411990642548,9.75397777557373,-1.0223240852355957,7.589,0.001065264455974102,0.002130528911948204,0.002130528911948204
12.648,-0.1628057211637497,9.77791976928711,-1.0462661981582642,12.648,0.001065264455974102,0.00532632227987051,0.001065264455974102
15.178,-0.1388636976480484,9.737217903137207,-1.0606313943862915,15.178,0.0,0.00532632227987051,-0.001065264455974102
20.236,-0.10295066982507706,9.708487510681152,-1.0271124839782715,20.236,0.003195793367922306,0.007456851191818714,-0.00532632227987051
22.766000000000002,-0.11013327538967133,9.72285270690918,-1.0606313943862915,22.766000000000002,0.002130528911948204,0.00532632227987051,-0.008522115647792816
27.825,-0.15562310814857483,9.718064308166504,-1.05105459690094,27.825,0.0,0.004261057823896408,-0.00532632227987051
32.88399999999999,-0.13168109953403473,9.718064308166504,-1.072602391242981,32.88399999999999,0.004261057823896408,0.003195793367922306,-0.006391586735844612
35.414,-0.16998831927776337,9.75397777557373,-1.1037269830703735,35.414,0.002130528911948204,0.001065264455974102,-0.007456851191818714
40.473,-0.15562310814857483,9.718064308166504,-1.1085153818130493,40.473,0.002130528911948204,0.001065264455974102,-0.004261057823896408
43.001999999999995,-0.17477671802043915,9.770736694335938,-1.0893617868423462,43.001999999999995,0.002130528911948204,-0.001065264455974102,-0.007456851191818714
48.061,-0.22266076505184174,9.696516990661621,-1.0845733880996704,48.061,0.0,0.001065264455974102,-0.009587380103766918
50.590999999999994,-0.23942017555236816,9.710882186889648,-1.113303780555725,50.590999999999994,0.0,0.001065264455974102,-0.009587380103766918
55.65,-0.2777273952960968,9.701305389404297,-1.072602391242981,55.65,-0.001065264455974102,0.0,-0.006391586735844612
60.708,-0.27054479718208313,9.694122314453125,-1.0678139925003052,60.708,-0.003195793367922306,0.001065264455974102,-0.004261057823896408
63.238,-0.2537853717803955,9.792284965515137,-1.070208191871643,63.238,0.0,0.001065264455974102,-0.003195793367922306
68.29599999999999,-0.4189853072166443,9.93593692779541,-0.9792284965515137,68.29599999999999,0.01065264455974102,0.001065264455974102,-0.004261057823896408
70.827,-0.26336219906806946,9.521739959716797,-1.091755986213684,70.827,0.01065264455974102,0.007456851191818714,-0.019174760207533836
75.88499999999999,-0.2753331959247589,9.710882186889648,-1.0606313943862915,75.88499999999999,-0.008522115647792816,0.006391586735844612,-0.008522115647792816
80.946,-0.2825157940387726,9.818621635437012,-0.9696516990661621,80.946,-0.003195793367922306,0.009587380103766918,-0.011717909015715122
83.474,-0.11971008777618408,9.72285270690918,-1.072602391242981,83.474,0.006391586735844612,0.008522115647792816,-0.004261057823896408
88.533,-0.21308395266532898,9.792284965515137,-1.01753568649292,88.533,0.007456851191818714,0.004261057823896408,-0.001065264455974102
91.063,-0.08858546614646912,9.550470352172852,-1.0606313943862915,91.063,0.00532632227987051,0.008522115647792816,-0.008522115647792816
96.121,-0.14844051003456116,9.706093788146973,-1.0342950820922852,96.121,-0.007456851191818714,0.00532632227987051,-0.004261057823896408
98.651,-0.09816227108240128,9.715670585632324,-1.0893617868423462,98.651,-0.003195793367922306,0.00532632227987051,-0.003195793367922306
103.71,-0.090979665517807,9.696516990661621,-1.1252747774124146,103.71,0.004261057823896408,0.0,0.00532632227987051
108.768,-0.15083470940589905,9.782708168029785,-1.0893617868423462,108.768,0.003195793367922306,0.0,0.009587380103766918
111.29799999999999,-0.10773907601833344,9.646238327026367,-1.1348515748977661,111.29799999999999,0.0,-0.002130528911948204,0.001065264455974102
116.357,-0.24660277366638184,9.782708168029785,-1.0869675874710083,116.357,-0.004261057823896408,-0.00532632227987051,0.002130528911948204
118.887,-0.22026655077934265,9.746794700622559,-1.0821791887283325,118.887,-0.002130528911948204,-0.004261057823896408,0.0
123.946,-0.2513911724090576,9.787496566772461,-1.0678139925003052,123.946,0.00532632227987051,-0.004261057823896408,0.002130528911948204
126.47500000000001,-0.2968810200691223,9.744400978088379,-1.1061211824417114,126.47500000000001,0.007456851191818714,-0.003195793367922306,0.0
131.53400000000002,-0.2513911724090576,9.667786598205566,-1.072602391242981,131.53400000000002,0.001065264455974102,-0.001065264455974102,-0.00532632227987051
136.59199999999998,-0.26575639843940735,9.703699111938477,-1.039083480834961,136.59199999999998,-0.002130528911948204,-0.001065264455974102,-0.004261057823896408
139.123,-0.26575639843940735,9.651026725769043,-0.993593692779541,139.123,0.001065264455974102,0.004261057823896408,0.0
144.18200000000002,-0.22505496442317963,9.737217903137207,-1.0319008827209473,144.18200000000002,0.003195793367922306,0.006391586735844612,0.011717909015715122
146.711,-0.22026655077934265,9.720458984375,-1.0582371950149536,146.711,0.002130528911948204,0.009587380103766918,0.01065264455974102
151.76999999999998,-0.2059013396501541,9.742006301879883,-1.048660397529602,151.76999999999998,-0.003195793367922306,0.01065264455974102,0.01065264455974102
156.828,-0.2059013396501541,9.706093788146973,-1.0414776802062988,156.828,-0.002130528911948204,0.009587380103766918,0.008522115647792816
159.359,-0.16998831927776337,9.72285270690918,-1.0654197931289673,159.359,-0.003195793367922306,0.007456851191818714,0.009587380103766918
164.417,-0.13407529890537262,9.737217903137207,-1.0271124839782715,164.417,0.0,0.006391586735844612,0.012783173471689224
166.94899999999998,-0.1604115068912506,9.80904483795166,-1.0773907899856567,166.94899999999998,0.0,0.00532632227987051,0.011717909015715122
172.006,-0.16998831927776337,9.746794700622559,-1.0606313943862915,172.006,0.002130528911948204,0.003195793367922306,0.00532632227987051
174.536,-0.15322890877723694,9.670180320739746,-1.048660397529602,174.536,0.002130528911948204,0.002130528911948204,0.003195793367922306
179.594,-0.12928688526153564,9.72285270690918,-1.070208191871643,179.594,-0.001065264455974102,0.0,0.003195793367922306
184.65300000000002,-0.12689268589019775,9.713275909423828,-1.0606313943862915,184.65300000000002,-0.001065264455974102,0.0,0.001065264455974102
187.183,-0.14604631066322327,9.737217903137207,-1.072602391242981,187.183,0.004261057823896408,0.003195793367922306,0.00532632227987051
192.24099999999999,-0.16998831927776337,9.684545516967773,-1.0630255937576294,192.24099999999999,0.00532632227987051,-0.003195793367922306,0.006391586735844612
194.771,-0.1628057211637497,9.742006301879883,-1.0462661981582642,194.771,0.002130528911948204,0.0,0.004261057823896408
199.83,-0.20111294090747833,9.732429504394531,-1.0749965906143188,199.83,0.003195793367922306,0.002130528911948204,0.002130528911948204
204.88899999999998,-0.2059013396501541,9.703699111938477,-1.0773907899856567,204.88899999999998,0.004261057823896408,0.001065264455974102,0.003195793367922306
207.41899999999998,-0.22744916379451752,9.727641105651855,-1.094150185585022,207.41899999999998,0.00532632227987051,0.003195793367922306,0.008522115647792816
212.477,-0.1843535304069519,9.746794700622559,-1.0797849893569946,212.477,0.001065264455974102,0.004261057823896408,0.008522115647792816
215.007,-0.17717093229293823,9.773131370544434,-1.0630255937576294,215.007,0.002130528911948204,0.0,0.004261057823896408
220.066,-0.2106897532939911,9.746794700622559,-1.072602391242981,220.066,0.002130528911948204,0.004261057823896408,0.003195793367922306
222.59599999999998,-0.19632454216480255,9.696516990661621,-1.0462661981582642,222.59599999999998,0.003195793367922306,0.004261057823896408,0.0
227.655,-0.17238251864910126,9.701305389404297,-1.0462661981582642,227.655,-0.002130528911948204,0.001065264455974102,0.003195793367922306
232.713,-0.19153612852096558,9.710882186889648,-1.048660397529602,232.713,-0.003195793367922306,0.0,0.002130528911948204
235.243,-0.16998831927776337,9.758766174316406,-1.036689281463623,235.243,-0.001065264455974102,0.002130528911948204,0.001065264455974102
240.302,-0.2082955539226532,9.734824180603027,-1.0821791887283325,240.302,0.002130528911948204,0.004261057823896408,0.001065264455974102
242.832,-0.2082955539226532,9.706093788146973,-1.0654197931289673,242.832,0.002130528911948204,0.002130528911948204,0.002130528911948204
247.891,-0.17238251864910126,9.751583099365234,-1.0773907899856567,247.891,0.0,0.004261057823896408,0.0
252.94899999999998,-0.17956513166427612,9.739612579345703,-1.0534487962722778,252.94899999999998,-0.001065264455974102,0.006391586735844612,0.001065264455974102
255.479,-0.18914192914962769,9.734824180603027,-1.048660397529602,255.479,0.002130528911948204,0.002130528911948204,0.002130528911948204
260.53700000000003,-0.17956513166427612,9.706093788146973,-1.0558429956436157,260.53700000000003,0.001065264455974102,0.002130528911948204,0.003195793367922306
263.06800000000004,-0.17238251864910126,9.746794700622559,-1.05105459690094,263.06800000000004,0.003195793367922306,0.001065264455974102,0.002130528911948204
268.126,-0.17477671802043915,9.746794700622559,-1.0534487962722778,268.126,0.002130528911948204,0.007456851191818714,-0.004261057823896408
270.656,-0.17717093229293823,9.696516990661621,-1.0438719987869263,270.656,0.002130528911948204,0.004261057823896408,-0.002130528911948204
275.715,-0.1604115068912506,9.715670585632324,-1.070208191871643,275.715,0.002130528911948204,0.002130528911948204,-0.001065264455974102
280.77299999999997,-0.1843535304069519,9.710882186889648,-1.0678139925003052,280.77299999999997,0.004261057823896408,0.003195793367922306,-0.001065264455974102
283.304,-0.17238251864910126,9.749189376831055,-1.0462661981582642,283.304,0.002130528911948204,0.004261057823896408,0.002130528911948204
288.362,-0.2106897532939911,9.72285270690918,-1.0462661981582642,288.362,0.002130528911948204,0.006391586735844612,0.002130528911948204
290.892,-0.22505496442317963,9.68933391571045,-1.070208191871643,290.892,0.002130528911948204,0.003195793367922306,0.002130528911948204
295.951,-0.16519992053508759,9.730035781860352,-1.0989385843276978,295.951,0.002130528911948204,0.0,-0.001065264455974102
298.481,-0.20111294090747833,9.713275909423828,-1.0893617868423462,298.481,0.001065264455974102,0.002130528911948204,0.001065264455974102
303.539,-0.20111294090747833,9.746794700622559,-1.070208191871643,303.539,0.004261057823896408,0.001065264455974102,0.0
308.59799999999996,-0.19632454216480255,9.732429504394531,-1.0749965906143188,308.59799999999996,0.006391586735844612,0.001065264455974102,0.002130528911948204
311.12800000000004,-0.21308395266532898,9.718064308166504,-1.0821791887283325,311.12800000000004,0.003195793367922306,0.003195793367922306,0.001065264455974102
316.187,-0.21308395266532898,9.68933391571045,-1.0582371950149536,316.187,0.002130528911948204,0.002130528911948204,0.001065264455974102
318.718,-0.17477671802043915,9.727641105651855,-1.0630255937576294,318.718,0.002130528911948204,0.007456851191818714,-0.001065264455974102
323.775,-0.1604115068912506,9.694122314453125,-1.0534487962722778,323.775,0.004261057823896408,0.002130528911948204,0.002130528911948204
328.834,-0.17238251864910126,9.715670585632324,-1.0749965906143188,328.834,0.00532632227987051,0.00532632227987051,0.004261057823896408
331.364,-0.1604115068912506,9.737217903137207,-1.0462661981582642,331.364,0.004261057823896408,0.006391586735844612,0.0
336.422,-0.1388636976480484,9.742006301879883,-1.0869675874710083,336.422,0.004261057823896408,0.002130528911948204,-0.001065264455974102
338.952,-0.14844051003456116,9.734824180603027,-1.072602391242981,338.952,0.003195793367922306,0.002130528911948204,0.0
344.011,-0.15562310814857483,9.715670585632324,-1.070208191871643,344.011,0.003195793367922306,0.004261057823896408,-0.002130528911948204
346.541,-0.14604631066322327,9.72285270690918,-1.0749965906143188,346.541,0.002130528911948204,0.001065264455974102,-0.002130528911948204
351.6,-0.19153612852096558,9.68933391571045,-1.072602391242981,351.6,0.001065264455974102,0.002130528911948204,-0.002130528911948204
356.65799999999996,-0.22505496442317963,9.68933391571045,-1.1061211824417114,356.65799999999996,0.002130528911948204,0.001065264455974102,0.001065264455974102
359.188,-0.2082955539226532,9.713275909423828,-1.0654197931289673,359.188,-0.001065264455974102,0.001065264455974102,-0.001065264455974102
364.247,-0.21547815203666687,9.725247383117676,-1.0558429956436157,364.247,0.0,0.0,0.002130528911948204
366.77700000000004,-0.272938996553421,9.708487510681152,-1.0534487962722778,366.77700000000004,0.0,0.001065264455974102,0.003195793367922306
371.836,-0.24899697303771973,9.715670585632324,-1.0654197931289673,371.836,0.001065264455974102,0.001065264455974102,0.001065264455974102
376.894,-0.2298433631658554,9.720458984375,-1.0749965906143188,376.894,0.001065264455974102,0.001065264455974102,0.004261057823896408
379.424,-0.20350714027881622,9.701305389404297,-1.113303780555725,379.424,0.0,0.001065264455974102,0.004261057823896408
384.48199999999997,-0.22505496442317963,9.713275909423828,-1.0821791887283325,384.48199999999997,-0.001065264455974102,-0.001065264455974102,0.00532632227987051
387.013,-0.21787235140800476,9.710882186889648,-1.070208191871643,387.013,-0.001065264455974102,0.001065264455974102,0.008522115647792816
392.071,-0.19153612852096558,9.746794700622559,-1.072602391242981,392.071,0.0,0.004261057823896408,0.009587380103766918
394.601,-0.20111294090747833,9.703699111938477,-1.0582371950149536,394.601,-0.002130528911948204,0.002130528911948204,0.009587380103766918
399.66,-0.19153612852096558,9.691728591918945,-1.0414776802062988,399.66,-0.001065264455974102,0.001065264455974102,0.01065264455974102
404.718,-0.1843535304069519,9.703699111938477,-1.0749965906143188,404.718,0.0,0.002130528911948204,0.009587380103766918
407.249,-0.1628057211637497,9.718064308166504,-1.036689281463623,407.249,-0.001065264455974102,0.004261057823896408,0.008522115647792816
412.30699999999996,-0.15562310814857483,9.737217903137207,-1.0223240852355957,412.30699999999996,0.0,0.003195793367922306,0.011717909015715122
414.837,-0.181959331035614,9.732429504394531,-1.0630255937576294,414.837,0.001065264455974102,0.00532632227987051,0.01065264455974102
419.896,-0.21308395266532898,9.734824180603027,-1.0127472877502441,419.896,0.0,0.00532632227987051,0.012783173471689224
424.954,-0.21308395266532898,9.746794700622559,-1.0223240852355957,424.954,0.0,0.003195793367922306,0.015978965908288956
427.485,-0.19153612852096558,9.792284965515137,-1.0127472877502441,427.485,0.002130528911948204,-0.001065264455974102,0.01065264455974102
432.543,-0.20350714027881622,9.797073364257812,-1.015141487121582,432.543,0.002130528911948204,0.0,0.008522115647792816
435.073,-0.19871874153614044,9.703699111938477,-1.015141487121582,435.073,0.0,0.0,0.004261057823896408
440.132,-0.2585737705230713,9.6989107131958,-1.039083480834961,440.132,0.0,0.001065264455974102,0.00532632227987051
442.662,-0.22026655077934265,9.701305389404297,-1.036689281463623,442.662,-0.001065264455974102,0.003195793367922306,0.008522115647792816
518.5459999999999,-0.19871874153614044,9.670180320739746,-1.0773907899856567,518.5459999999999,0.0,-0.006391586735844612,-0.009587380103766918
523.605,-0.22026655077934265,9.770736694335938,-1.0893617868423462,523.605,-0.003195793367922306,-0.002130528911948204,-0.00532632227987051
528.663,-0.19393034279346466,9.952696800231934,-1.0654197931289673,528.663,-0.00532632227987051,-0.002130528911948204,-0.007456851191818714
531.1940000000001,-0.2537853717803955,9.32302188873291,-1.0654197931289673,531.1940000000001,0.001065264455974102,-0.002130528911948204,-0.03515372797846794
536.252,-0.5339069962501526,9.555258750915527,-1.0869675874710083,536.252,-0.002130528911948204,-0.006391586735844612,0.004261057823896408
538.782,-0.3926490843296051,9.861717224121094,-1.0893617868423462,538.782,-0.020240023732185364,0.001065264455974102,0.015978965908288956
543.841,-0.2513911724090576,9.816226959228516,-1.0558429956436157,543.841,0.001065264455974102,0.001065264455974102,0.015978965908288956
548.899,-0.3447650372982025,9.725247383117676,-1.01753568649292,548.899,0.017044231295585632,0.0,0.01065264455974102
619.726,-0.30885201692581177,9.667786598205566,-1.048660397529602,619.726,-0.027696875855326653,0.009587380103766918,0.01810949482023716
624.784,-0.2944868206977844,9.730035781860352,-1.015141487121582,624.784,-0.02556634694337845,0.012783173471689224,0.01810949482023716
627.3140000000001,-0.19632454216480255,9.828198432922363,-1.0845733880996704,627.3140000000001,-0.023435818031430244,0.01810949482023716,0.020240023732185364
632.3729999999999,-0.1867477297782898,9.622296333312988,-1.1061211824417114,632.3729999999999,-0.024501081556081772,0.01810949482023716,0.013848437927663326
634.903,-0.1604115068912506,9.66539192199707,-1.1013327836990356,634.903,-0.024501081556081772,0.017044231295585632,0.017044231295585632
639.962,-0.07661445438861847,9.787496566772461,-1.1013327836990356,639.962,-0.026631610468029976,0.013848437927663326,0.015978965908288956
642.491,-0.05985504388809204,9.75397777557373,-1.0893617868423462,642.491,-0.027696875855326653,0.012783173471689224,0.011717909015715122
647.55,-0.24420857429504395,9.545681953430176,-0.8667010068893433,647.55,-0.04367583990097046,0.008522115647792816,0.01065264455974102
715.846,-0.12689268589019775,9.617507934570312,-1.015141487121582,715.846,0.001065264455974102,0.011717909015715122,0.002130528911948204
723.4350000000001,-0.1149216815829277,9.794678688049316,-1.0031704902648926,723.4350000000001,-0.004261057823896408,0.006391586735844612,0.014913702383637428
728.4929999999999,-0.09816227108240128,9.801861763000488,-1.0271124839782715,728.4929999999999,-0.009587380103766918,0.006391586735844612,0.009587380103766918
731.024,-0.17956513166427612,9.737217903137207,-1.039083480834961,731.024,-0.007456851191818714,0.0,0.00532632227987051
736.082,-0.2059013396501541,9.703699111938477,-1.0199298858642578,736.082,-0.00532632227987051,-0.003195793367922306,0.002130528911948204
738.6120000000001,-0.2059013396501541,9.655815124511719,-1.0247182846069336,738.6120000000001,-0.00532632227987051,-0.003195793367922306,0.003195793367922306
743.6709999999999,-0.2561795711517334,9.701305389404297,-1.0103530883789062,743.6709999999999,-0.023435818031430244,-0.00532632227987051,0.002130528911948204
748.7289999999999,-0.2082955539226532,9.68694019317627,-1.0582371950149536,748.7289999999999,-0.020240023732185364,-0.002130528911948204,0.004261057823896408
811.967,-0.16998831927776337,9.682151794433594,-1.0079588890075684,811.967,-0.037284255027770996,0.001065264455974102,0.03621898964047432
817.029,-0.1843535304069519,9.832986831665039,-0.9026140570640564,817.029,-0.029827404767274857,0.004261057823896408,0.03515372797846794
819.5559999999999,-0.07661445438861847,9.792284965515137,-0.9816226959228516,819.5559999999999,-0.011717909015715122,0.0,0.027696875855326653
824.6139999999999,-0.021547814831137657,9.761159896850586,-1.048660397529602,824.6139999999999,-0.00532632227987051,0.0,0.022370552644133568
827.144,-0.13168109953403473,9.6989107131958,-0.9696516990661621,827.144,-0.024501081556081772,-0.002130528911948204,0.012783173471689224
832.202,-0.05267243832349777,9.701305389404297,-1.0319008827209473,832.202,-0.026631610468029976,0.003195793367922306,0.01065264455974102
834.733,-0.10055647045373917,9.792284965515137,-0.9457096457481384,834.733,-0.015978965908288956,-0.003195793367922306,0.014913702383637428
839.792,-0.07182604819536209,9.794678688049316,-0.9457096457481384,839.792,-0.01810949482023716,-0.003195793367922306,0.004261057823896408
915.676,-0.14604631066322327,9.708487510681152,-0.9959878921508789,915.676,-0.04793689772486687,0.01810949482023716,-0.019174760207533836
920.735,-0.15801730751991272,9.737217903137207,-0.8810662031173706,920.735,-0.049002163112163544,0.022370552644133568,-0.019174760207533836
923.265,-0.20350714027881622,9.730035781860352,-0.8882488012313843,923.265,-0.04687163606286049,0.02876213937997818,-0.015978965908288956
930.8539999999999,-0.2082955539226532,9.816226959228516,-0.8906430602073669,930.8539999999999,-0.04793689772486687,0.03302319720387459,-0.020240023732185364
935.9119999999999,-0.20350714027881622,9.612719535827637,-0.7852981686592102,935.9119999999999,-0.04793689772486687,0.041545312851667404,-0.023435818031430244
938.442,-0.06703764945268631,9.775525093078613,-0.9792284965515137,938.442,-0.03515372797846794,0.04261057823896408,-0.02130528911948204
943.5010000000001,-0.26336219906806946,9.742006301879883,-0.9026140570640564,943.5010000000001,-0.055393751710653305,0.04261057823896408,-0.03834952041506767
948.5590000000001,-0.17477671802043915,9.59835433959961,-0.667982280254364,948.5590000000001,-0.05965480953454971,0.041545312851667404,-0.041545312851667404
1024.444,-0.1867477297782898,9.375694274902344,-0.6177040338516235,1024.444,-0.1022653877735138,0.09374327212572098,-0.05752427875995636
1026.9740000000002,0.038307227194309235,9.528923034667969,-0.8236053586006165,1026.9740000000002,-0.044741105288267136,0.08948221057653427,-0.027696875855326653
1032.0320000000002,-0.38307225704193115,10.259154319763184,-0.6033388376235962,1032.0320000000002,-0.08948221057653427,0.0788295641541481,-0.022370552644133568
1034.5629999999999,-0.30885201692581177,10.007762908935547,-0.6655880808830261,1034.5629999999999,-0.09906959533691406,0.08948221057653427,-0.049002163112163544
1039.6209999999999,-0.5578489899635315,9.10993766784668,-0.40940847992897034,1039.6209999999999,-0.04048004746437073,0.07456851005554199,-0.037284255027770996
1044.68,-1.048660397529602,9.394847869873047,-0.11252748221158981,1044.68,-0.029827404767274857,0.07243797928094864,-0.02876213937997818
1047.21,-0.6799532771110535,10.249577522277832,-0.6440402865409851,1047.21,-0.12783172726631165,0.12676647305488586,-0.041545312851667404
1052.268,-0.27054479718208313,9.967061996459961,-0.6440402865409851,1052.268,-0.037284255027770996,0.12463593482971191,0.0
1123.095,0.21787235140800476,10.077195167541504,-0.5602431893348694,1123.095,-0.12676647305488586,0.16937704384326935,-0.03302319720387459
1128.154,0.19871874153614044,10.103530883789062,-1.0414776802062988,1128.154,-0.14594122767448425,0.1533980816602707,-0.09374327212572098
1130.684,0.06464344263076782,9.909601211547852,-1.0749965906143188,1130.684,-0.1342233121395111,0.14168016612529755,-0.08948221057653427
1135.742,0.05746084079146385,9.852140426635742,-0.7398083209991455,1135.742,-0.13209278881549835,0.11930961906909943,-0.0884169489145279
1140.801,0.11013327538967133,9.48343276977539,-0.871489405632019,1140.801,-0.11398329585790634,0.11717908829450607,-0.08628641813993454
1143.3310000000001,-0.0071826050989329815,9.983820915222168,-1.501164436340332,1143.3310000000001,-0.13209278881549835,0.07456851005554199,-0.06178533658385277
1148.3890000000001,0.47165772318840027,11.197681427001953,-1.0749965906143188,1148.3890000000001,-0.2034655064344406,0.058589544147253036,-0.14061491191387177
1150.919,0.19871874153614044,10.60152530670166,-0.9097966551780701,1150.919,-0.1203748807311058,0.03621898964047432,-0.18642127513885498
1158.508,-0.021547814831137657,9.775525093078613,-1.2401964664459229,1158.508,-0.08948221057653427,-0.002130528911948204,-0.18642127513885498
1163.567,0.17717093229293823,9.95748519897461,-1.1204863786697388,1163.567,-0.11930961906909943,-0.034088462591171265,-0.21518340706825256
1168.625,0.05267243832349777,10.002974510192871,-1.0199298858642578,1168.625,-0.1022653877735138,-0.05006742849946022,-0.222640261054039
1171.155,-0.038307227194309235,10.319009780883789,-0.9481038451194763,1171.155,-0.09800432622432709,-0.08309062570333481,-0.25246766209602356
1176.2140000000002,0.011971008032560349,10.180145263671875,-1.0845733880996704,1176.2140000000002,-0.06924218684434891,-0.10759170353412628,-0.2929477095603943
1178.744,-0.040701430290937424,9.998186111450195,-0.933738648891449,1178.744,-0.05965480953454971,-0.12463593482971191,-0.31318774819374084
1183.8029999999999,-0.016759412363171577,9.742006301879883,-0.9983820915222168,1183.8029999999999,-0.06178533658385277,-0.1438107043504715,-0.33662354946136475
1188.8609999999999,-0.07900865375995636,9.821015357971191,-1.0319008827209473,1188.8609999999999,-0.05645901337265968,-0.1576591283082962,-0.3387540876865387
1267.276,-0.5913678407669067,9.622296333312988,-0.768538773059845,1267.276,0.058589544147253036,-0.30786141753196716,-0.46125948429107666
1272.334,-0.7230489253997803,9.48343276977539,-0.7709329724311829,1272.334,0.06178533658385277,-0.30466562509536743,-0.4506068527698517
1274.865,-0.7422025203704834,9.425971984863281,-0.8188169598579407,1274.865,0.055393751710653305,-0.29933929443359375,-0.4410194754600525
1279.923,-0.9002198576927185,9.670180320739746,-0.706289529800415,1279.923,0.04261057823896408,-0.2908172011375427,-0.4218447208404541
1282.453,-0.933738648891449,9.579200744628906,-0.8427590131759644,1282.453,0.03195793181657791,-0.28016453981399536,-0.42077943682670593
1287.512,-1.0773907899856567,9.516951560974121,-0.8355764150619507,1287.512,0.02876213937997818,-0.26631611585617065,-0.41438785195350647
1292.57,-1.1755530834197998,9.528923034667969,-0.8475474119186401,1292.57,0.012783173471689224,-0.25353294610977173,-0.41545313596725464
1295.101,-1.1994950771331787,9.344569206237793,-0.8427590131759644,1295.101,-0.006391586735844612,-0.23116238415241241,-0.4069310128688812
1350.749,-0.44771572947502136,10.170568466186523,-0.7445967197418213,1350.749,-0.022370552644133568,-0.10013485699892044,-0.35047200322151184
1355.808,-0.8236053586006165,9.979032516479492,-0.6344634294509888,1355.808,-0.007456851191818714,-0.11398329585790634,-0.4026699662208557
1360.867,-0.7398083209991455,8.99740982055664,-0.4836287498474121,1360.867,0.01065264455974102,-0.1203748807311058,-0.4271710216999054
1363.397,-2.145204782485962,8.89685344696045,-0.6488286852836609,1363.397,-0.1576591283082962,-0.1299622654914856,-0.49854373931884766
1368.455,-2.166752576828003,9.943120002746582,-0.22505496442317963,1368.455,-0.17896442115306854,-0.11185276508331299,-0.5070658922195435
1370.985,-1.1899182796478271,11.57596492767334,-0.45250412821769714,1370.985,-0.09054747968912125,-0.09693906456232071,-0.4090615510940552
1376.044,-1.05105459690094,9.852140426635742,-0.811634361743927,1376.044,0.08309062570333481,-0.1161138191819191,-0.4229099750518799
1378.574,-1.3527239561080933,9.265560150146484,-0.7709329724311829,1378.574,0.029827404767274857,-0.11930961906909943,-0.4772384762763977
1439.282,-1.3096283674240112,10.335768699645996,-0.5147533416748047,1439.282,-0.1299622654914856,-0.25246766209602356,-0.5475459098815918
1444.34,-1.2306196689605713,9.294290542602539,-0.5937620401382446,1444.34,-0.09054747968912125,-0.27164241671562195,-0.5571333169937134
1446.8700000000001,-1.525106430053711,8.983044624328613,-0.7038952708244324,1446.8700000000001,-0.09906959533691406,-0.2780340015888214,-0.5699164867401123
1451.931,-1.5753847360610962,9.01895809173584,-0.6368576288223267,1451.931,-0.17363810539245605,-0.27696874737739563,-0.5858954191207886
1454.4589999999998,-1.6136919260025024,9.284713745117188,-0.5434837937355042,1454.4589999999998,-0.1896170675754547,-0.28122982382774353,-0.5613943338394165
1459.518,-1.7884687185287476,9.895236015319824,-0.45250412821769714,1459.518,-0.15872439742088318,-0.2929477095603943,-0.521979570388794
1464.576,-1.8100165128707886,9.646238327026367,-0.5578489899635315,1464.576,-0.13848437368869781,-0.29401299357414246,-0.5198490619659424
1467.106,-1.7334020137786865,10.007762908935547,-0.6248866319656372,1467.106,-0.1757686287164688,-0.2886866629123688,-0.5198490619659424
1472.165,-1.8602946996688843,9.425971984863281,-0.7876923680305481,1472.165,-0.14061491191387177,-0.2822950780391693,-0.555002748966217
1474.6950000000002,-1.9273324012756348,9.129091262817383,-0.706289529800415,1474.6950000000002,-0.15020228922367096,-0.2790992856025696,-0.5656554102897644
1479.7530000000002,-1.9273324012756348,9.440337181091309,-0.6871358752250671,1479.7530000000002,-0.2183792144060135,-0.2684466242790222,-0.5528722405433655
1484.8120000000001,-1.8507179021835327,9.526528358459473,-0.6392518281936646,1484.8120000000001,-0.2269013226032257,-0.26631611585617065,-0.5443501472473145
1548.05,-1.644816517829895,9.8784761428833,-0.40701428055763245,1548.05,-0.10546118021011353,-0.16298545897006989,-0.32597091794013977
1550.5800000000002,-1.6711528301239014,9.828198432922363,-0.37828385829925537,1550.5800000000002,-0.07669904083013535,-0.16298545897006989,-0.324905663728714
1555.6380000000001,-1.7262194156646729,9.320627212524414,-0.5315127968788147,1555.6380000000001,-0.0649811327457428,-0.15020228922367096,-0.3440804183483124
1560.697,-1.800439715385437,9.402029991149902,-0.6248866319656372,1560.697,-0.020240023732185364,-0.14594122767448425,-0.333427757024765
1563.2269999999999,-1.6352397203445435,9.430760383605957,-0.5123591423034668,1563.2269999999999,-0.04261057823896408,-0.1395496428012848,-0.3067961633205414
1568.2849999999999,-1.659181833267212,9.44991397857666,-0.3471592366695404,1568.2849999999999,-0.01810949482023716,-0.13635385036468506,-0.2833603322505951
1570.816,-1.6352397203445435,9.57441234588623,-0.36152446269989014,1570.816,-0.015978965908288956,-0.13848437368869781,-0.2865561246871948
1575.874,-1.6927006244659424,9.742006301879883,-0.2968810200691223,1575.874,0.008522115647792816,-0.14061491191387177,-0.28549087047576904
1651.759,-2.22660756111145,9.39245319366455,-0.5339069962501526,1651.759,0.22796659171581268,-0.16298545897006989,-0.2908172011375427
1656.818,-2.276885747909546,9.576807022094727,-0.4596867263317108,1656.818,0.2269013226032257,-0.1672465205192566,-0.28442561626434326
1659.348,-2.3511061668395996,9.718064308166504,-0.5123591423034668,1659.348,0.2322276383638382,-0.17470335960388184,-0.30466562509536743
1664.406,-2.3702597618103027,9.591172218322754,-0.6105214357376099,1664.406,0.23009711503982544,-0.17470335960388184,-0.31744879484176636
1666.936,-2.4229321479797363,9.44752025604248,-0.5003881454467773,1666.936,0.22050973773002625,-0.17896442115306854,-0.3291667103767395
1671.995,-2.4660277366638184,9.473855972290039,-0.6224924325942993,1671.995,0.1949433833360672,-0.1810949593782425,-0.3281014561653137
1674.525,-2.434903144836426,9.428366661071777,-0.6727706789970398,1674.525,0.19281286001205444,-0.185356006026268,-0.3291667103767395
1679.584,-2.3535003662109375,9.399636268615723,-0.6799532771110535,1679.584,0.19387812912464142,-0.19174759089946747,-0.3163835406303406
1740.291,-2.7461493015289307,9.636661529541016,-0.4620809257030487,1740.291,0.11930961906909943,-0.15978966653347015,-0.4687163531780243
1742.821,-2.7509377002716064,9.653421401977539,-0.47884035110473633,1742.821,0.1299622654914856,-0.1533980816602707,-0.474042683839798
1747.88,-2.7269957065582275,9.330204010009766,-0.5578489899635315,1747.88,0.12463593482971191,-0.1395496428012848,-0.48469531536102295
1752.938,-2.6862943172454834,9.105149269104004,-0.5578489899635315,1752.938,0.1299622654914856,-0.13635385036468506,-0.4868258535861969
1755.469,-2.719813108444214,9.155426979064941,-0.5961562395095825,1755.469,0.09693906456232071,-0.11930961906909943,-0.4814995229244232
1760.527,-2.7293899059295654,9.394847869873047,-0.586579442024231,1760.527,0.07989483326673508,-0.11185276508331299,-0.474042683839798
1763.057,-2.698265314102173,9.452308654785156,-0.4812345504760742,1763.057,0.11398329585790634,-0.1065264418721199,-0.436758428812027
1768.115,-2.808398485183716,9.950302124023438,-0.5339069962501526,1768.115,0.10759170353412628,-0.10120011866092682,-0.38775625824928284
1836.412,-3.7469255924224854,8.65743350982666,2.762908697128296,1836.412,0.500674307346344,-0.15659387409687042,-0.5113269090652466
1838.944,-1.9991583824157715,9.636661529541016,-0.24660277366638184,1838.944,0.24820661544799805,-0.10333064943552017,-0.4687163531780243
1844.001,-3.77565598487854,5.2265424728393555,0.4692635238170624,1844.001,-0.17470335960388184,-0.027696875855326653,-0.4974784851074219
1846.531,-3.624821424484253,9.399636268615723,-0.7852981686592102,1846.531,-0.24714134633541107,-0.03941478207707405,-0.33662354946136475
1851.5900000000001,-3.3063924312591553,11.39400577545166,-0.035913024097681046,1851.5900000000001,0.017044231295585632,-0.12250541150569916,-0.21092236042022705
1856.6480000000001,-2.676717519760132,12.069170951843262,-0.36152446269989014,1856.6480000000001,0.06711165606975555,-0.11930961906909943,-0.27164241671562195
1859.1779999999999,-3.2800562381744385,11.188104629516602,-0.0454898327589035,1859.1779999999999,0.08415588736534119,-0.12783172726631165,-0.42397522926330566
1864.236,-3.531447410583496,9.155426979064941,0.42377370595932007,1864.236,0.21518340706825256,-0.13315805792808533,-0.474042683839798
1942.6509999999998,-2.6647465229034424,7.771578788757324,-0.9026140570640564,1942.6509999999998,0.11291802674531937,0.16831177473068237,0.052197955548763275
1952.769,-2.5258827209472656,7.891288757324219,-0.8355764150619507,1952.769,0.055393751710653305,0.17896442115306854,0.09693906456232071
1955.299,-2.6024973392486572,7.898471355438232,-0.9792284965515137,1955.299,0.001065264455974102,0.1810949593782425,0.09587379544973373
1960.358,-2.7700912952423096,7.82185697555542,-1.015141487121582,1960.358,-0.03302319720387459,0.1757686287164688,0.1161138191819191
1962.887,-2.676717519760132,7.910442352294922,-0.8978256583213806,1962.887,-0.049002163112163544,0.16937704384326935,0.13635385036468506
1967.946,-2.7485435009002686,8.073247909545898,-0.9002198576927185,1967.946,-0.07989483326673508,0.16085493564605713,0.15659387409687042
1970.4759999999999,-2.715024709701538,8.159439086914062,-0.950498104095459,1970.4759999999999,-0.09480853378772736,0.15233281254768372,0.16085493564605713
1975.535,-2.7772738933563232,8.398859977722168,-0.8523358106613159,1975.535,-0.1203748807311058,0.13102751970291138,0.15446333587169647
2048.8900000000003,-2.5546131134033203,10.596736907958984,-0.6224924325942993,2048.8900000000003,0.08522115647792816,-0.019174760207533836,-0.3771035969257355
2056.4779999999996,-2.82515811920166,10.237606048583984,-0.5793967843055725,2056.4779999999996,0.11185276508331299,-0.027696875855326653,-0.41012680530548096
2059.008,-2.8443117141723633,10.311826705932617,-0.6536170840263367,2059.008,0.14594122767448425,-0.030892668291926384,-0.38242992758750916
2064.067,-2.7940332889556885,10.539276123046875,-0.6320692300796509,2064.067,0.17789915204048157,-0.037284255027770996,-0.36858150362968445
2066.5969999999998,-2.75812029838562,10.491392135620117,-0.6775590777397156,2066.5969999999998,0.2130528837442398,-0.04261057823896408,-0.370712012052536
2071.656,-2.7964274883270264,10.132261276245117,-0.790086567401886,2071.656,0.24394555389881134,-0.049002163112163544,-0.39201730489730835
2076.714,-2.9041666984558105,9.876082420349121,-0.8164227604866028,2076.714,0.24288028478622437,-0.05432848632335663,-0.39734363555908203
2079.244,-3.1220390796661377,9.639056205749512,-0.8355764150619507,2079.244,0.24501082301139832,-0.06711165606975555,-0.3760383427143097
2139.952,-3.5242648124694824,9.306262016296387,-0.727837324142456,2139.952,0.34088462591171265,-0.13635385036468506,-0.2364886999130249
2142.4820000000004,-3.536235809326172,9.29189682006836,-0.7038952708244324,2142.4820000000004,0.3515372574329376,-0.12889699637889862,-0.22583605349063873
2147.5409999999997,-3.5913026332855225,9.20091724395752,-0.7637503147125244,2147.5409999999997,0.3515372574329376,-0.11504855751991272,-0.20666129887104034
2152.6,-3.600879430770874,9.186552047729492,-0.7350199222564697,2152.6,0.3536677956581116,-0.10759170353412628,-0.2034655064344406
2155.129,-3.737348794937134,9.038111686706543,-0.8140285611152649,2155.129,0.3536677956581116,-0.08522115647792816,-0.19707392156124115
2160.188,-3.6750996112823486,8.83699893951416,-1.0893617868423462,2160.188,0.3291667103767395,-0.05965480953454971,-0.1992044448852539
2162.718,-3.706224203109741,8.765172004699707,-0.8690952062606812,2162.718,0.3206445872783661,-0.05006742849946022,-0.20026971399784088
2167.777,-3.7014358043670654,8.9064302444458,-0.9816226959228516,2167.777,0.2972087860107422,-0.022370552644133568,-0.20240023732185364
2182.954,-3.60566782951355,8.892065048217773,-0.8403648138046265,2182.954,0.29827404022216797,0.014913702383637428,-0.27057716250419617
2188.012,-3.6511576175689697,8.686163902282715,-0.9481038451194763,2188.012,0.29933929443359375,0.019174760207533836,-0.28016453981399536
2190.5420000000004,-3.706224203109741,8.731653213500977,-0.8786720037460327,2190.5420000000004,0.29933929443359375,0.020240023732185364,-0.28016453981399536
2195.601,-3.641580820083618,8.619126319885254,-0.9624691009521484,2195.601,0.2929477095603943,0.023435818031430244,-0.2822950780391693
2200.659,-3.665522813796997,8.573636054992676,-0.9888052940368652,2200.659,0.29507824778556824,0.02556634694337845,-0.2737729549407959
2203.19,-3.706224203109741,8.552088737487793,-0.9648633003234863,2203.19,0.2918824553489685,0.022370552644133568,-0.250337153673172
2208.248,-3.7277719974517822,8.401253700256348,-1.0821791887283325,2208.248,0.28975191712379456,0.024501081556081772,-0.2407497614622116
2210.778,-3.713406801223755,8.274360656738281,-1.0678139925003052,2210.778,0.28122982382774353,0.023435818031430244,-0.23116238415241241
2332.194,-3.3423056602478027,9.493009567260742,-0.9959878921508789,2332.194,-0.08948221057653427,-0.09693906456232071,0.5209143161773682
2339.782,-3.35667085647583,9.442731857299805,-0.9409212470054626,2339.782,-0.07243797928094864,-0.10120011866092682,0.5123921632766724
2344.8410000000003,-3.3686418533325195,9.473855972290039,-0.9768342971801758,2344.8410000000003,-0.07030745595693588,-0.10333064943552017,0.5145227313041687
2347.371,-3.399766445159912,9.48343276977539,-0.871489405632019,2347.371,-0.06604639440774918,-0.10333064943552017,0.517718493938446
2352.429,-3.56017804145813,9.411606788635254,-0.8547300100326538,2352.429,-0.05965480953454971,-0.10333064943552017,0.521979570388794
2354.959,-3.6990416049957275,9.528923034667969,-0.8547300100326538,2354.959,-0.04367583990097046,-0.10013485699892044,0.5624596476554871
2360.018,-3.600879430770874,9.694122314453125,-0.9002198576927185,2360.018,-0.04793689772486687,-0.09480853378772736,0.5901564955711365
2362.548,-3.5697548389434814,9.605537414550781,-0.768538773059845,2362.548,-0.03834952041506767,-0.09480853378772736,0.605070173740387
2380.254,-3.3303346633911133,9.32541561126709,-1.1228805780410767,2380.254,-0.029827404767274857,-0.0649811327457428,0.7009440064430237
2387.8430000000003,-3.1723172664642334,9.404424667358398,-1.1324573755264282,2387.8430000000003,-0.044741105288267136,-0.044741105288267136,0.7499461770057678
2395.431,-3.0597896575927734,9.466673851013184,-1.1300631761550903,2395.431,-0.05752427875995636,-0.014913702383637428,0.8277104496955872
2403.02,-2.889801502227783,9.557653427124023,-1.1659762859344482,2403.02,-0.02876213937997818,0.012783173471689224,0.9161273837089539
2408.0789999999997,-2.784456491470337,9.583989143371582,-1.115697979927063,2408.0789999999997,-0.015978965908288956,0.02876213937997818,0.9619337916374207
2410.6079999999997,-2.7030537128448486,9.603142738342285,-1.1899182796478271,2410.6079999999997,-0.012783173471689224,0.03515372797846794,0.9800432920455933
2415.667,-2.6839001178741455,9.452308654785156,-1.1851298809051514,2415.667,-0.001065264455974102,0.044741105288267136,1.02584969997406
2420.726,-2.6384103298187256,9.394847869873047,-1.2210428714752197,2420.726,0.001065264455974102,0.049002163112163544,1.0492854118347168
2486.494,-1.7501614093780518,9.770736694335938,-1.115697979927063,2486.494,0.10972223430871964,0.13315805792808533,1.4551512002944946
2499.1409999999996,-1.7573440074920654,9.619902610778809,-1.1061211824417114,2499.1409999999996,0.12250541150569916,0.11717908829450607,1.4199974536895752
2504.1989999999996,-1.6831238269805908,9.730035781860352,-1.1109095811843872,2504.1989999999996,0.1299622654914856,0.11504855751991272,1.4231932163238525
2506.729,-1.5921441316604614,9.751583099365234,-1.1228805780410767,2506.729,0.1395496428012848,0.1161138191819191,1.4231932163238525
2511.788,-1.50355863571167,9.873687744140625,-1.1516109704971313,2511.788,0.15233281254768372,0.12250541150569916,1.39869225025177
2516.8469999999998,-1.525106430053711,9.758766174316406,-1.1875240802764893,2516.8469999999998,0.15126754343509674,0.12676647305488586,1.3773869276046753
2519.377,-1.5682021379470825,9.461885452270508,-1.1444283723831177,2519.377,0.1395496428012848,0.13528858125209808,1.359277367591858
2524.435,-1.5921441316604614,9.430760383605957,-1.1899182796478271,2524.435,0.14168016612529755,0.13635385036468506,1.3646037578582764
2640.792,0.5291185975074768,9.78989028930664,-1.259350061416626,2640.792,-0.020240023732185364,0.25779399275779724,1.038632869720459
2648.38,0.5123591423034668,9.78989028930664,-1.1492167711257935,2648.38,-0.03515372797846794,0.21518340706825256,0.9321063756942749
2655.97,0.5386953949928284,9.876082420349121,-1.1037269830703735,2655.97,-0.01810949482023716,0.1768338978290558,0.8777778744697571
2658.499,0.5530605912208557,9.84256362915039,-1.115697979927063,2658.499,-0.012783173471689224,0.16511598229408264,0.853276789188385
2663.558,0.4644751250743866,9.770736694335938,-1.115697979927063,2663.558,-0.002130528911948204,0.14274543523788452,0.8234493732452393
2668.616,0.44771572947502136,9.761159896850586,-1.0845733880996704,2668.616,0.008522115647792816,0.13209278881549835,0.8117315173149109
2671.147,0.47644615173339844,9.782708168029785,-1.1875240802764893,2671.147,0.012783173471689224,0.1161138191819191,0.7968177795410156
2676.205,0.40222588181495667,9.84256362915039,-1.2401964664459229,2676.205,-0.01065264455974102,0.10972223430871964,0.7627293467521667
2744.501,0.17717093229293823,9.832986831665039,0.31364041566848755,2744.501,-0.29827404022216797,0.22157500684261322,0.6221144199371338
2747.0319999999997,2.2912509441375732,11.33654499053955,-0.646434485912323,2747.0319999999997,0.11185276508331299,0.17789915204048157,0.5720469951629639
2752.09,-0.23942017555236816,7.783549785614014,-3.5865142345428467,2752.09,-0.3675162196159363,0.33555829524993896,0.5155879855155945
2754.62,0.4189853072166443,11.33654499053955,-0.22266076505184174,2754.62,-0.4548678994178772,0.27590349316596985,0.6274407505989075
2759.679,1.3694833517074585,9.38048267364502,-2.0374655723571777,2759.679,0.258859246969223,0.28549087047576904,0.7829693555831909
2764.7369999999996,1.5825673341751099,9.117119789123535,-1.3766659498214722,2764.7369999999996,0.2790992856025696,0.2822950780391693,0.8202536106109619
2767.268,1.8076223134994507,9.603142738342285,-1.1037269830703735,2767.268,0.14700649678707123,0.2886866629123688,0.8500810265541077
2772.326,1.8195933103561401,8.83699893951416,-2.0925323963165283,2772.326,0.07137271761894226,0.3057308793067932,0.8042746186256409
2855.7999999999997,2.032677173614502,9.907206535339355,-0.9385270476341248,2855.7999999999997,0.25672873854637146,0.1342233121395111,0.9629990458488464
2860.8579999999997,2.190694570541382,9.390059471130371,-1.1827356815338135,2860.8579999999997,0.25672873854637146,0.14700649678707123,0.9310411214828491
2863.389,2.1763293743133545,9.246406555175781,-1.1013327836990356,2863.389,0.2407497614622116,0.14913702011108398,0.9331716299057007
2868.447,1.9393033981323242,9.277531623840332,-1.194706678390503,2868.447,0.23755396902561188,0.15020228922367096,0.9406284689903259
2870.977,2.1595699787139893,9.17697525024414,-1.381454348564148,2870.977,0.21198761463165283,0.1757686287164688,0.9363674521446228
2876.035,2.3343467712402344,9.069235801696777,-1.0630255937576294,2876.035,0.2183792144060135,0.18429075181484222,0.9491506218910217
2878.5660000000003,2.3343467712402344,9.121908187866211,-1.3934253454208374,2878.5660000000003,0.2130528837442398,0.19600865244865417,0.9502158761024475
2883.6240000000003,2.425326347351074,8.935160636901855,-1.3311761617660522,2883.6240000000003,0.20772656798362732,0.2034655064344406,0.9363674521446228
2944.333,3.4093432426452637,8.592789649963379,-1.237802267074585,2944.333,-0.049002163112163544,0.13102751970291138,1.1856392621994019
2946.862,3.428496837615967,8.62630844116211,-1.1755530834197998,2946.862,-0.06391586363315582,0.11824434995651245,1.1867045164108276
2951.921,3.4811692237854004,8.710105895996094,-1.1444283723831177,2951.921,-0.07456851005554199,0.092678003013134,1.180312991142273
2954.453,3.4835634231567383,8.497021675109863,-1.1563993692398071,2954.453,-0.07456851005554199,0.08202536404132843,1.1792477369308472
2959.5099999999998,3.536235809326172,8.4108304977417,-1.3192051649093628,2959.5099999999998,-0.08735167980194092,0.055393751710653305,1.192030906677246
2964.5679999999998,3.552995204925537,8.547300338745117,-1.237802267074585,2964.5679999999998,-0.09906959533691406,0.04367583990097046,1.1994876861572266
2967.098,3.6343982219696045,8.640673637390137,-1.2976573705673218,2967.098,-0.12357067316770554,0.019174760207533836,1.184574007987976
2972.156,3.5865142345428467,8.485051155090332,-1.3742717504501343,2972.156,-0.14594122767448425,0.0,1.1568771600723267
3040.453,3.308786630630493,8.62630844116211,-0.8667010068893433,3040.453,-0.28549087047576904,0.04580637067556381,1.117462396621704
3042.983,3.1651346683502197,8.62391471862793,-0.4429273009300232,3042.983,-0.287621408700943,0.06072007119655609,1.07591712474823
3048.042,3.2776620388031006,8.362946510314941,-0.8068459630012512,3048.042,-0.3195793330669403,0.09054747968912125,1.0194580554962158
3050.5719999999997,3.201047658920288,8.310274124145508,-0.5123591423034668,3050.5719999999997,-0.33129724860191345,0.09374327212572098,1.0077401399612427
3055.6299999999997,3.294421434402466,8.166622161865234,-0.7565677165985107,3055.6299999999997,-0.3376888334751129,0.12250541150569916,1.0077401399612427
3060.689,3.3662476539611816,8.214506149291992,-0.45010992884635925,3060.689,-0.31851404905319214,0.12144014239311218,1.0130665302276611
3063.219,3.514688014984131,8.161833763122559,-0.6392518281936646,3063.219,-0.3440804183483124,0.15126754343509674,1.0045443773269653
3068.277,3.7158010005950928,8.315062522888184,-0.3663128614425659,3068.277,-0.3568635880947113,0.1768338978290558,0.9843043088912964
3070.808,3.794809579849243,8.334216117858887,-0.5674257874488831,3070.808,-0.3664509654045105,0.19813919067382812,0.965129554271698
3075.866,3.9049429893493652,8.305485725402832,-0.6392518281936646,3075.866,-0.370712012052536,0.2183792144060135,0.9214537143707275
3080.925,3.866635799407959,8.135497093200684,-0.6320692300796509,3080.925,-0.37390780448913574,0.23116238415241241,0.8980178833007812
3083.455,4.005499362945557,7.785943984985352,-0.811634361743927,3083.455,-0.38669097423553467,0.25353294610977173,0.8724515438079834
3139.1040000000003,5.22175407409668,8.26239013671875,-0.7613561153411865,3139.1040000000003,-0.5858954191207886,0.18748654425144196,0.9896306395530701
3144.1620000000003,5.48272180557251,8.777143478393555,-0.7110779285430908,3144.1620000000003,-0.5709817409515381,0.16405072808265686,1.0418286323547363
3146.6929999999998,5.492298603057861,9.114726066589355,-0.5099649429321289,3146.6929999999998,-0.5315669775009155,0.1438107043504715,1.051416039466858
3156.81,5.600037574768066,8.638279914855957,-0.8212111592292786,3156.81,-0.45806369185447693,0.1161138191819191,1.035436987876892
3159.3399999999997,5.6455278396606445,8.640673637390137,-0.871489405632019,3159.3399999999997,-0.42930155992507935,0.08415588736534119,1.0375674962997437
3164.3979999999997,5.7341132164001465,8.544905662536621,-0.8595184087753296,3164.3979999999997,-0.4218447208404541,0.06924218684434891,1.035436987876892
3166.928,5.638344764709473,8.53293514251709,-0.9169792532920837,3166.928,-0.4165183901786804,0.030892668291926384,1.0365022420883179
3171.987,5.564124584197998,8.9064302444458,-0.9720458984375,3171.987,-0.40586575865745544,0.001065264455974102,1.0375674962997437
3187.165,5.04218864440918,8.990227699279785,-0.7086837291717529,3187.165,-0.27164241671562195,-0.09054747968912125,1.0812433958053589
3194.753,5.20978307723999,9.404424667358398,-0.608127236366272,3194.753,-0.23329290747642517,-0.11078750342130661,1.0695254802703857
3199.812,5.193023681640625,9.528923034667969,-0.507570743560791,3199.812,-0.185356006026268,-0.12144014239311218,1.035436987876892
3204.87,5.082890033721924,9.57441234588623,-0.3734954595565796,3204.87,-0.15659387409687042,-0.12783172726631165,1.0194580554962158
3207.3999999999996,4.967968463897705,9.421183586120605,-0.33039984107017517,3207.3999999999996,-0.08415588736534119,-0.13209278881549835,1.0002832412719727
3212.459,4.941632270812988,9.378087997436523,-0.26336219906806946,3212.459,-0.05645901337265968,-0.13315805792808533,1.0002832412719727
3214.989,4.733336925506592,9.346963882446289,-0.15562310814857483,3214.989,-0.002130528911948204,-0.13102751970291138,0.9917612075805664
3220.047,4.67827033996582,9.153033256530762,-0.2849099934101105,3220.047,0.04367583990097046,-0.12463593482971191,0.9779127240180969
3280.755,5.748478412628174,7.793126583099365,-0.8379706144332886,3280.755,0.05965480953454971,0.07030745595693588,0.530501663684845
3283.286,5.853823184967041,7.5417351722717285,-0.8212111592292786,3283.286,0.07563377171754837,0.09161274135112762,0.47617319226264954
3288.344,5.834669589996338,7.417236804962158,-0.8810662031173706,3288.344,0.07669904083013535,0.10546118021011353,0.46552056074142456
3290.8740000000003,5.861005783081055,7.417236804962158,-0.8188169598579407,3290.8740000000003,0.07776430249214172,0.10865697264671326,0.47084689140319824
3295.935,5.34625244140625,7.163451671600342,-0.5339069962501526,3295.935,0.04580637067556381,0.13102751970291138,0.48895636200904846
3298.4629999999997,3.9408559799194336,5.8873419761657715,-0.8475474119186401,3298.4629999999997,-0.07989483326673508,0.16831177473068237,0.5347627401351929
3303.5209999999997,7.036558628082275,8.722076416015625,-0.5267243981361389,3303.5209999999997,0.19813919067382812,0.0788295641541481,0.7478156089782715
3308.58,7.3669586181640625,9.172186851501465,-0.27054479718208313,3308.58,0.23435817658901215,0.07137271761894226,0.7307714223861694
3440.114,6.18182897567749,6.926425457000732,-1.2617442607879639,3440.114,0.12889699637889862,-0.058589544147253036,0.055393751710653305
3442.6440000000002,6.169857978820801,7.062894821166992,-1.5753847360610962,3442.6440000000002,0.10546118021011353,-0.03302319720387459,0.037284255027770996
3447.703,6.145915985107422,6.955155849456787,-1.4245500564575195,3447.703,0.10546118021011353,-0.004261057823896408,0.002130528911948204
3452.761,6.088454723358154,6.964732646942139,-1.4844050407409668,3452.761,0.0884169489145279,0.012783173471689224,-0.007456851191818714
3455.2909999999997,5.947196960449219,7.220912456512451,-1.1755530834197998,3455.2909999999997,0.04580637067556381,0.037284255027770996,-0.02876213937997818
3460.35,5.858611583709717,7.503427982330322,-0.8762778043746948,3460.35,0.04367583990097046,0.06391586363315582,-0.04687163606286049
3462.88,5.801150798797607,7.568071365356445,-0.8188169598579407,3462.88,0.044741105288267136,0.07350324839353561,-0.044741105288267136
3467.938,5.78678560256958,7.644686222076416,-0.6560112833976746,3467.938,0.0649811327457428,0.092678003013134,-0.037284255027770996
3488.175,6.141127586364746,7.620744228363037,-0.6751648783683777,3488.175,0.1203748807311058,0.11185276508331299,-0.06072007119655609
3490.7050000000004,6.402095317840576,7.618350028991699,-0.8427590131759644,3490.7050000000004,0.13528858125209808,0.10865697264671326,-0.0511326938867569
3495.7630000000004,6.62236213684082,7.613561630249023,-0.7876923680305481,3495.7630000000004,0.16618125140666962,0.10972223430871964,-0.04048004746437073
3500.8219999999997,6.914454460144043,7.580042362213135,-0.8044517636299133,3500.8219999999997,0.1672465205192566,0.11291802674531937,-0.06178533658385277
3503.352,7.079654216766357,7.773972988128662,-0.7852981686592102,3503.352,0.15872439742088318,0.11824434995651245,-0.11398329585790634
3508.41,6.983886241912842,7.608773231506348,-0.7757213711738586,3508.41,0.18429075181484222,0.11398329585790634,-0.148071750998497
3510.943,6.677428722381592,7.141903877258301,-0.8834604024887085,3510.943,0.17789915204048157,0.12676647305488586,-0.19707392156124115
3515.999,6.780379295349121,6.943184852600098,-0.8882488012313843,3515.999,0.1768338978290558,0.13102751970291138,-0.20133498311042786
3579.237,6.421248912811279,8.10437297821045,-0.37828385829925537,3579.237,0.13848437368869781,0.08522115647792816,-0.14274543523788452
3584.295,6.27280855178833,6.701370716094971,-0.7805097699165344,3584.295,0.14700649678707123,0.08948221057653427,-0.24820661544799805
3586.826,6.19379997253418,6.3302693367004395,-0.828393816947937,3586.826,0.13635385036468506,0.08735167980194092,-0.24501082301139832
3591.884,6.098031520843506,6.794744491577148,-0.8020575642585754,3591.884,0.09054747968912125,0.08096009492874146,-0.20559602975845337
3596.946,6.258443355560303,6.842628479003906,-0.7661445140838623,3596.946,0.06391586363315582,0.08415588736534119,-0.21624867618083954
3599.473,6.540958881378174,7.105990409851074,-0.7996633648872375,3599.473,0.03515372797846794,0.07456851005554199,-0.250337153673172
3604.531,6.469132900238037,7.113173484802246,-0.7110779285430908,3604.531,0.034088462591171265,0.06817692518234253,-0.27696874737739563
3607.062,6.313509941101074,6.794744491577148,-0.6847416758537292,3607.062,0.012783173471689224,0.05752427875995636,-0.3419498801231384
3660.181,6.378153324127197,7.931990146636963,-0.8020575642585754,3660.181,-0.044741105288267136,-0.15978966653347015,-0.8298410177230835
3667.769,6.335057735443115,7.644686222076416,-0.7924807667732239,3667.769,-0.05326322093605995,-0.19387812912464142,-0.9086705446243286
3672.828,6.232107162475586,7.618350028991699,-0.7254431247711182,3672.828,-0.0649811327457428,-0.20240023732185364,-0.9353021383285522
3675.358,6.129156112670898,7.489062786102295,-0.912190854549408,3675.358,-0.08415588736534119,-0.21944446861743927,-0.9683253765106201
3680.416,6.054935932159424,7.565677165985107,-0.8331822156906128,3680.416,-0.10120011866092682,-0.22477079927921295,-0.9757822155952454
3682.9480000000003,5.966350555419922,7.627926826477051,-0.9888052940368652,3682.9480000000003,-0.08415588736534119,-0.23861923813819885,-0.9853696227073669
3688.005,5.937620162963867,7.795520782470703,-0.9193734526634216,3688.005,-0.10759170353412628,-0.24501082301139832,-1.01093590259552
3690.5350000000003,5.920860767364502,7.910442352294922,-0.8906430602073669,3690.5350000000003,-0.09693906456232071,-0.2514024078845978,-1.0322412252426147
3776.537,5.092466831207275,8.439560890197754,-1.0103530883789062,3776.537,-0.10546118021011353,-0.10333064943552017,-1.3401026725769043
3779.068,4.977545261383057,8.425195693969727,-1.1755530834197998,3779.068,-0.09161274135112762,-0.0884169489145279,-1.3518205881118774
3784.126,4.977545261383057,8.580819129943848,-1.4077905416488647,3784.126,-0.08948221057653427,-0.06817692518234253,-1.3507553339004517
3786.656,5.140350818634033,8.719682693481445,-1.2497732639312744,3786.656,-0.06711165606975555,-0.07137271761894226,-1.3528858423233032
3791.715,5.109226226806641,9.023746490478516,-1.1252747774124146,3791.715,-0.06604639440774918,-0.06285060197114944,-1.3720605373382568
3796.773,5.279214859008789,8.983044624328613,-1.4508862495422363,3796.773,-0.04580637067556381,-0.06391586363315582,-1.3944311141967773
3799.3039999999996,5.04218864440918,9.160215377807617,-1.1803414821624756,3799.3039999999996,-0.022370552644133568,-0.07776430249214172,-1.4050837755203247
3804.3619999999996,4.867412090301514,9.141061782836914,-1.0271124839782715,3804.3619999999996,-0.013848437927663326,-0.08202536404132843,-1.4253238439559937
3880.247,3.354276657104492,8.731653213500977,-1.2114660739898682,3880.247,0.33236250281333923,0.03195793181657791,-1.0865696668624878
3882.777,3.4787750244140625,8.585607528686523,-1.314416766166687,3882.777,0.3536677956581116,0.04793689772486687,-1.055677056312561
3887.8360000000002,3.641580820083618,8.669404029846191,-1.4245500564575195,3887.8360000000002,0.3526025116443634,0.06924218684434891,-0.9896306395530701
3892.8940000000002,3.529053211212158,8.80587387084961,-1.278503656387329,3892.8940000000002,0.3526025116443634,0.07669904083013535,-0.9704558849334717
3895.4249999999997,3.423708438873291,8.556877136230469,-1.3934253454208374,3895.4249999999997,0.33555829524993896,0.10439591109752655,-0.9491506218910217
3900.4829999999997,3.361459255218506,8.437167167663574,-1.335964560508728,3900.4829999999997,0.3419498801231384,0.10759170353412628,-0.9257147908210754
3903.013,3.2561142444610596,8.461109161376953,-1.4652514457702637,3903.013,0.35579830408096313,0.1257012039422989,-0.8522115349769592
3908.071,3.4620156288146973,8.559270858764648,-1.4437036514282227,3908.071,0.34940671920776367,0.13528858125209808,-0.7882956862449646
3968.779,3.6990416049957275,9.224859237670898,-1.1324573755264282,3968.779,0.1533980816602707,-0.06604639440774918,-0.5805690884590149
3976.368,3.821146011352539,9.066842079162598,-1.50355863571167,3976.368,0.12676647305488586,-0.13741910457611084,-0.679638683795929
3978.898,3.778050184249878,8.975862503051758,-1.460463047027588,3978.898,0.12144014239311218,-0.16085493564605713,-0.7030745148658752
3983.9570000000003,3.7229835987091064,8.769960403442383,-1.6352397203445435,3983.9570000000003,0.08415588736534119,-0.19387812912464142,-0.732901930809021
3986.487,3.6607344150543213,8.834604263305664,-1.534683346748352,3986.487,0.08202536404132843,-0.2130528837442398,-0.7360976934432983
3991.546,3.6343982219696045,8.935160636901855,-1.601720929145813,3991.546,0.06711165606975555,-0.24288028478622437,-0.7584682703018188
3996.6040000000003,3.60566782951355,9.062053680419922,-1.5490485429763794,3996.6040000000003,0.0649811327457428,-0.25779399275779724,-0.7765777707099915
3999.134,3.397372245788574,9.217676162719727,-1.501164436340332,3999.134,0.044741105288267136,-0.27696874737739563,-0.8234493732452393
4016.84,2.669534921646118,9.5624418258667,-1.1324573755264282,4016.84,0.015978965908288956,-0.2929477095603943,-0.9203884601593018
4019.3700000000003,2.4827871322631836,9.433155059814453,-1.0893617868423462,4019.3700000000003,0.013848437927663326,-0.2908172011375427,-0.9384979605674744
4024.4280000000003,2.3582887649536133,9.35893440246582,-1.091755986213684,4024.4280000000003,0.01810949482023716,-0.2886866629123688,-0.9395632147789001
4026.959,2.142810583114624,9.311050415039062,-1.0582371950149536,4026.959,0.030892668291926384,-0.28122982382774353,-0.9246495366096497
4032.018,2.0925323963165283,9.344569206237793,-1.1061211824417114,4032.018,0.029827404767274857,-0.2641855776309967,-0.9150621294975281
4034.547,2.099714994430542,9.368511199951172,-1.158793568611145,4034.547,0.022370552644133568,-0.260989785194397,-0.9139968752861023
4039.606,1.968033790588379,9.263166427612305,-1.1085153818130493,4039.606,0.011717909015715122,-0.24394555389881134,-0.9150621294975281
4044.664,1.889025092124939,9.217676162719727,-1.2330138683319092,4044.664,-0.002130528911948204,-0.23329290747642517,-0.9118663668632507
4102.844,2.1045033931732178,9.5624418258667,-1.1109095811843872,4102.844,-0.06604639440774918,-0.22583605349063873,-1.1217234134674072
4107.903,2.075772762298584,9.437943458557129,-1.161187767982483,4107.903,-0.07989483326673508,-0.25246766209602356,-1.192030906677246
4110.432000000001,2.0877439975738525,9.473855972290039,-1.1204863786697388,4110.432000000001,-0.08628641813993454,-0.2727077007293701,-1.2271846532821655
4115.491,2.070984363555908,9.619902610778809,-1.1228805780410767,4115.491,-0.1065264418721199,-0.30786141753196716,-1.3156015872955322
4120.549,2.097320795059204,9.612719535827637,-1.0582371950149536,4120.549,-0.1161138191819191,-0.32703617215156555,-1.3624732494354248
4123.08,2.0614075660705566,9.452308654785156,-1.137245774269104,4123.08,-0.13102751970291138,-0.37284255027770996,-1.4626080989837646
4128.138,1.6855180263519287,8.7484130859375,-1.2976573705673218,4128.138,-0.18002969026565552,-0.4133225977420807,-1.5169365406036377
4130.669,1.3742717504501343,8.62630844116211,-1.2066776752471924,4130.669,-0.2183792144060135,-0.436758428812027,-1.5126755237579346
4204.023,-0.1843535304069519,9.521739959716797,-0.6847416758537292,4204.023,-0.44208472967147827,-0.2695119082927704,-1.7555557489395142
4206.554,-0.12928688526153564,9.39245319366455,-0.5770025849342346,4206.554,-0.44315001368522644,-0.24501082301139832,-1.76407790184021
4211.612,0.2801215946674347,9.758766174316406,-0.8307880163192749,4211.612,-0.3291667103767395,-0.23755396902561188,-1.7917747497558594
4216.671,-0.5291185975074768,7.920019149780273,-1.6903064250946045,4216.671,-0.36858150362968445,-0.19707392156124115,-1.8237327337265015
4219.201,-0.8427590131759644,10.881647109985352,0.6177040338516235,4219.201,-0.6572681665420532,-0.16085493564605713,-1.7779263257980347
4224.259,-0.45250412821769714,9.059659004211426,-0.36152446269989014,4224.259,-0.34621092677116394,-0.13315805792808533,-1.75662100315094
4226.789,-0.5386953949928284,10.103530883789062,-1.1851298809051514,4226.789,-0.4048004746437073,-0.10333064943552017,-1.743837833404541
4231.848,-0.7948749661445618,9.097966194152832,-0.7350199222564697,4231.848,-0.38775625824928284,-0.07563377171754837,-1.7800568342208862
4282.438,-1.3718775510787964,9.75397777557373,-0.6105214357376099,4282.438,-0.3898867666721344,0.18002969026565552,-0.9875001311302185
4292.5560000000005,-0.44771572947502136,9.41400146484375,-0.0454898327589035,4292.5560000000005,-0.39308255910873413,0.23861923813819885,-0.8213188648223877
4295.086,-0.5291185975074768,11.051634788513184,-0.1173158809542656,4295.086,-0.3430151343345642,0.22796659171581268,-0.7169229388237
4300.144,-0.05267243832349777,10.342951774597168,-1.173158884048462,4300.144,-0.2545982003211975,0.2641855776309967,-0.7893609404563904
4302.675,-0.2059013396501541,9.983820915222168,-0.5003881454467773,4302.675,-0.28975191712379456,0.24288028478622437,-0.8138620257377625
4307.733,-0.47884035110473633,10.448296546936035,-0.7326257228851318,4307.733,-0.20026971399784088,0.24181503057479858,-0.7456851005554199
4312.792,-0.2585737705230713,10.019734382629395,-0.42377370595932007,4312.792,-0.1395496428012848,0.23009711503982544,-0.7147924304008484
4315.322,0.12210428714752197,10.556035041809082,-0.5841852426528931,4315.322,-0.1768338978290558,0.22796659171581268,-0.6593986749649048
4391.206999999999,-0.6607996821403503,9.964667320251465,-0.8259995579719543,4391.206999999999,0.22903184592723846,-0.23861923813819885,-0.6519418358802795
4396.264999999999,-0.8020575642585754,10.002974510192871,-0.7493851184844971,4396.264999999999,0.2407497614622116,-0.2790992856025696,-0.6008091568946838
4398.796,-0.6871358752250671,10.110713958740234,-0.8403648138046265,4398.796,0.26205503940582275,-0.3025350868701935,-0.5709817409515381
4403.854,-0.5147533416748047,11.128249168395996,-0.9193734526634216,4403.854,0.32703617215156555,-0.36005938053131104,-0.5486111640930176
4408.914000000001,-0.4692635238170624,10.41956615447998,-0.09816227108240128,4408.914000000001,0.44634580612182617,-0.4037352204322815,-0.6061354875564575
4411.443,-1.41257905960083,10.005369186401367,-0.090979665517807,4411.443,0.14913702011108398,-0.4048004746437073,-0.6487460136413574
4416.501,-1.3000515699386597,10.491392135620117,-0.5099649429321289,4416.501,0.23968449234962463,-0.4090615510940552,-0.6306365132331848
4419.031999999999,-1.4484920501708984,9.428366661071777,-0.24181437492370605,4419.031999999999,0.3440804183483124,-0.44208472967147827,-0.5795038342475891
4424.089999999999,-1.4891934394836426,9.516951560974121,-0.7134721279144287,4424.089999999999,0.29401299357414246,-0.4261057674884796,-0.5731122493743896
4426.62,-1.601720929145813,9.452308654785156,-0.7661445140838623,4426.62,0.30466562509536743,-0.43356263637542725,-0.5603290796279907
4431.679,-1.7884687185287476,9.452308654785156,-0.49799394607543945,4431.679,0.22903184592723846,-0.42077943682670593,-0.5613943338394165
4436.737,-1.8507179021835327,9.433155059814453,-1.036689281463623,4436.737,0.2514024078845978,-0.41864892840385437,-0.5507417321205139
4492.387,-2.346317768096924,9.536105155944824,-0.5003881454467773,4492.387,0.3142530024051666,-0.3110572099685669,-0.7733819484710693
4494.917,-2.207453966140747,9.244012832641602,-0.9074024558067322,4494.917,0.3004045784473419,-0.28975191712379456,-0.8372978568077087
4499.976000000001,-2.451662540435791,9.069235801696777,-1.0869675874710083,4499.976000000001,0.2545982003211975,-0.2631203234195709,-0.8958873748779297
4502.505,-2.585737943649292,8.858546257019043,-0.8451532125473022,4502.505,0.23009711503982544,-0.2514024078845978,-0.9225189685821533
4507.564,-2.7916390895843506,8.671798706054688,-1.0247182846069336,4507.564,0.18642127513885498,-0.21944446861743927,-0.9235842823982239
4512.622,-2.9305028915405273,8.650250434875488,-1.0223240852355957,4512.622,0.18322548270225525,-0.20559602975845337,-0.9097357988357544
4515.152999999999,-2.9065608978271484,8.81784439086914,-1.0319008827209473,4515.152999999999,0.15446333587169647,-0.17044231295585632,-0.8948221206665039
4520.210999999999,-2.896984100341797,8.884882926940918,-1.036689281463623,4520.210999999999,0.11824434995651245,-0.13209278881549835,-0.8937568664550781
4596.097000000001,-2.96162748336792,9.99339771270752,-1.4437036514282227,4596.097000000001,0.05432848632335663,0.12463593482971191,-0.882038950920105
4598.626,-3.064578056335449,9.943120002746582,-1.4293384552001953,4598.626,0.0649811327457428,0.12676647305488586,-0.8969526290893555
4603.6849999999995,-3.0621838569641113,10.122684478759766,-1.3096283674240112,4603.6849999999995,0.1065264418721199,0.12783172726631165,-0.9012137055397034
4608.744,-2.9951462745666504,10.204087257385254,-1.2473790645599365,4608.744,0.12250541150569916,0.1299622654914856,-0.9097357988357544
4611.273999999999,-2.868253707885742,10.378864288330078,-1.2114660739898682,4611.273999999999,0.16937704384326935,0.13209278881549835,-0.9374327063560486
4616.332,-2.849100112915039,10.575188636779785,-1.0965443849563599,4616.332,0.20133498311042786,0.13209278881549835,-0.9906958937644958
4618.862,-2.9161376953125,10.47702693939209,-1.0630255937576294,4618.862,0.21092236042022705,0.13102751970291138,-1.0290454626083374
4623.9220000000005,-2.894589900970459,10.357316970825195,-1.094150185585022,4623.9220000000005,0.2545982003211975,0.12250541150569916,-1.0695254802703857
4692.218000000001,-3.928884983062744,9.21288776397705,-1.1563993692398071,4692.218000000001,0.2972087860107422,-0.08628641813993454,-1.279382586479187
4694.746999999999,-3.9240965843200684,9.253589630126953,-1.158793568611145,4694.746999999999,0.30892667174339294,-0.09374327212572098,-1.2836436033248901
4699.806,-4.046200752258301,9.23682975769043,-1.1899182796478271,4699.806,0.34621092677116394,-0.11504855751991272,-1.3049489259719849
4704.865,-4.05817174911499,9.107542991638184,-1.139639973640442,4704.865,0.3419498801231384,-0.12144014239311218,-1.3198626041412354
4707.395,-4.213795185089111,8.947132110595703,-1.158793568611145,4707.395,0.31744879484176636,-0.1395496428012848,-1.3507553339004517
4712.453,-4.216189384460449,8.939949035644531,-1.1779472827911377,4712.453,0.30786141753196716,-0.14168016612529755,-1.3582121133804321
4714.984,-4.4508209228515625,8.793902397155762,-1.036689281463623,4714.984,0.3110572099685669,-0.15020228922367096,-1.361407995223999
4720.042,-4.558559894561768,8.681375503540039,-1.0845733880996704,4720.042,0.32597091794013977,-0.15020228922367096,-1.3390374183654785
4843.988,-5.130774021148682,8.092401504516602,-1.3982137441635132,4843.988,-0.13528858125209808,-0.15446333587169647,-1.4072142839431763
4846.518,-5.123591423034668,7.970297336578369,-1.2497732639312744,4846.518,-0.1299622654914856,-0.15552860498428345,-1.3954963684082031
4856.635,-5.250484466552734,8.38449478149414,-1.015141487121582,4856.635,-0.11824434995651245,-0.17257283627986908,-1.3550163507461548
4859.165,-5.097255229949951,8.683769226074219,-1.8411411046981812,4859.165,-0.02556634694337845,-0.1757686287164688,-1.370995283126831
4864.224,-5.518634796142578,7.738059997558594,-1.3311761617660522,4864.224,0.008522115647792816,-0.21518340706825256,-1.3816479444503784
4866.754,-5.635950565338135,7.132327079772949,-1.5610195398330688,4866.754,0.003195793367922306,-0.21518340706825256,-1.366734266281128
4871.813,-5.9519853591918945,6.694188117980957,-1.3120225667953491,4871.813,-0.034088462591171265,-0.24288028478622437,-1.2815130949020386
4876.871,-5.95677375793457,6.63433313369751,-1.1635819673538208,4876.871,-0.07030745595693588,-0.24288028478622437,-1.2410330772399902
4942.639,-6.327875137329102,8.446743965148926,-0.6799532771110535,4942.639,0.05752427875995636,-0.06924218684434891,-0.7137271761894226
4947.698,-6.282385349273682,8.128314971923828,-0.7709329724311829,4947.698,0.1065264418721199,-0.037284255027770996,-0.761664092540741
4952.756,-6.435614109039307,7.752425193786621,-0.8331822156906128,4952.756,0.12676647305488586,-0.019174760207533836,-0.7776430249214172
4955.287,-6.67982292175293,7.053318023681641,-1.0462661981582642,4955.287,0.16831177473068237,0.009587380103766918,-0.7435545921325684
4960.345,-6.50025749206543,6.897695064544678,-1.192312479019165,4960.345,0.1715075671672821,0.03302319720387459,-0.6615291833877563
4962.875,-6.18182897567749,7.15387487411499,-1.3048399686813354,4962.875,0.16618125140666962,0.04367583990097046,-0.6274407505989075
4967.933,-5.975927352905273,7.429207801818848,-1.2976573705673218,4967.933,0.18642127513885498,0.04687163606286049,-0.6253102421760559
4970.464,-5.980715751647949,7.343016624450684,-1.3742717504501343,4970.464,0.19600865244865417,0.04687163606286049,-0.6444849967956543
4988.17,-6.354211330413818,6.57926607131958,-1.37906014919281,4988.17,0.18642127513885498,-0.01810949482023716,-0.6434197425842285
4990.6990000000005,-6.3063273429870605,6.675034523010254,-1.2665326595306396,4990.6990000000005,0.17470335960388184,-0.029827404767274857,-0.6348975896835327
4995.758000000001,-6.308721542358398,6.9695210456848145,-1.113303780555725,4995.758000000001,0.18216021358966827,-0.058589544147253036,-0.6327670812606812
5000.817,-6.256049156188965,6.931213855743408,-1.1228805780410767,5000.817,0.19387812912464142,-0.07350324839353561,-0.6348975896835327
5003.347,-6.210559368133545,6.675034523010254,-1.1085153818130493,5003.347,0.22370553016662598,-0.1065264418721199,-0.6455502510070801
5008.405,-6.210559368133545,6.497863292694092,-1.070208191871643,5008.405,0.23329290747642517,-0.12463593482971191,-0.6455502510070801
5010.938,-6.315904140472412,6.275202751159668,-1.1180921792984009,5010.938,0.2173139452934265,-0.1576591283082962,-0.6519418358802795
5015.994,-6.344634532928467,6.054935932159424,-1.4077905416488647,5015.994,0.19707392156124115,-0.18429075181484222,-0.6359628438949585
5086.821,-6.952761650085449,6.447585105895996,-1.3551181554794312,5086.821,-0.12676647305488586,-0.1768338978290558,0.05752427875995636
5091.879,-6.892906665802002,6.543353080749512,-1.3646949529647827,5091.879,-0.13209278881549835,-0.18216021358966827,0.11824434995651245
5096.938,-6.871358871459961,6.610390663146973,-1.3958195447921753,5096.938,-0.12463593482971191,-0.18216021358966827,0.15126754343509674
5099.468,-6.852205276489258,6.574477672576904,-1.4748282432556152,5099.468,-0.10865697264671326,-0.185356006026268,0.2045307755470276
5104.526,-6.8043212890625,6.62236213684082,-1.5179238319396973,5104.526,-0.10759170353412628,-0.18642127513885498,0.2269013226032257
5107.057,-6.794744491577148,6.617573261260986,-1.5538369417190552,5107.057,-0.10333064943552017,-0.1906823366880417,0.27057716250419617
5112.115,-6.785167694091797,6.775590896606445,-1.6112977266311646,5112.115,-0.10759170353412628,-0.19707392156124115,0.3014698326587677
5114.645,-6.809109687805176,6.84981107711792,-1.6376339197158813,5114.645,-0.10865697264671326,-0.19707392156124115,0.3121224641799927
5236.061000000001,-7.264008045196533,7.163451671600342,-1.0342950820922852,5236.061000000001,0.20026971399784088,0.18429075181484222,0.7222492694854736
5238.591,-7.218518257141113,7.2352776527404785,-1.0295066833496094,5238.591,0.1896170675754547,0.19813919067382812,0.7478156089782715
5243.65,-6.919242858886719,7.304709434509277,-1.0103530883789062,5243.65,0.1949433833360672,0.2173139452934265,0.8021441102027893
5251.238,-6.675034523010254,7.067683219909668,-1.039083480834961,5251.238,0.16511598229408264,0.24501082301139832,0.8639294505119324
5256.297,-6.392518520355225,7.010222434997559,-1.0797849893569946,5256.297,0.16298545897006989,0.24927186965942383,0.9171926975250244
5258.827,-6.275202751159668,6.897695064544678,-1.1204863786697388,5258.827,0.14700649678707123,0.25353294610977173,0.9406284689903259
5263.886,-6.04775333404541,6.988674640655518,-1.1492167711257935,5263.886,0.1065264418721199,0.25672873854637146,0.9896306395530701
5268.946,-5.949591159820557,7.036558628082275,-1.1516109704971313,5268.946,0.09906959533691406,0.25353294610977173,1.014131784439087
5339.771,-4.656722068786621,8.255207061767578,-1.0007762908935547,5339.771,-0.09693906456232071,-0.2780340015888214,1.9217370748519897
5344.829,-4.496310710906982,8.176198959350586,-1.1061211824417114,5344.829,-0.07137271761894226,-0.287621408700943,1.9451727867126465
5347.36,-4.726154327392578,8.339004516601562,-1.1061211824417114,5347.36,-0.07030745595693588,-0.29827404022216797,1.9654128551483154
5352.418,-4.817133903503418,8.355764389038086,-1.0773907899856567,5352.418,-0.07776430249214172,-0.3025350868701935,1.9643476009368896
5354.948,-4.76924991607666,8.293514251708984,-1.1061211824417114,5354.948,-0.07137271761894226,-0.30466562509536743,1.9654128551483154
5360.0070000000005,-4.967968463897705,8.24084186553955,-1.158793568611145,5360.0070000000005,-0.06711165606975555,-0.3014698326587677,2.00163197517395
5362.536999999999,-4.953603267669678,8.339004516601562,-1.015141487121582,5362.536999999999,-0.0649811327457428,-0.29507824778556824,2.0197412967681885
5367.596,-5.114014625549316,8.741230010986328,-0.7158663272857666,5367.596,-0.055393751710653305,-0.28549087047576904,2.047438144683838
5448.539000000001,-4.1395745277404785,9.80904483795166,-0.8020575642585754,5448.539000000001,0.14700649678707123,0.2684466242790222,1.8492990732192993
5451.069,-3.8163576126098633,9.481039047241211,-0.9313444495201111,5451.069,0.17470335960388184,0.2822950780391693,1.7800568342208862
5456.128,-3.603273630142212,9.490615844726562,-1.0821791887283325,5456.128,0.20026971399784088,0.28122982382774353,1.7406420707702637
5458.657999999999,-3.6080620288848877,9.48343276977539,-1.0654197931289673,5458.657999999999,0.1949433833360672,0.2780340015888214,1.7129452228546143
5463.717,-3.466804027557373,9.457097053527832,-1.1085153818130493,5463.717,0.21518340706825256,0.2641855776309967,1.6735304594039917
5468.775,-3.397372245788574,9.658209800720215,-1.1204863786697388,5468.775,0.2322276383638382,0.25672873854637146,1.6575514078140259
5471.3060000000005,-3.1196448802948,9.725247383117676,-1.2521674633026123,5471.3060000000005,0.258859246969223,0.23755396902561188,1.581917643547058
5476.3640000000005,-3.0837318897247314,9.66299819946289,-1.3287819623947144,5476.3640000000005,0.2695119082927704,0.2183792144060135,1.4892396926879883
5534.543000000001,-3.203441858291626,9.10993766784668,-1.2018892765045166,5534.543000000001,0.2173139452934265,0.2727077007293701,0.8341020345687866
5539.602000000001,-3.1938650608062744,8.767566680908203,-1.2186486721038818,5539.602000000001,0.22050973773002625,0.28442561626434326,0.8117315173149109
5544.661,-3.2393548488616943,8.757989883422852,-1.1755530834197998,5544.661,0.20666129887104034,0.28975191712379456,0.8127967715263367
5547.191,-3.201047658920288,8.69095230102539,-1.2449848651885986,5547.191,0.1949433833360672,0.30466562509536743,0.8085356950759888
5552.249,-3.023876667022705,8.829815864562988,-1.3862427473068237,5552.249,0.17363810539245605,0.31851404905319214,0.807470440864563
5554.7789999999995,-2.9759926795959473,8.96149730682373,-1.3024457693099976,5554.7789999999995,0.16298545897006989,0.32597091794013977,0.7936220169067383
5559.838,-2.846705913543701,8.702922821044922,-1.4724340438842773,5559.838,0.14061491191387177,0.34940671920776367,0.7605987787246704
5564.896,-2.806004285812378,8.674192428588867,-1.357512354850769,5564.896,0.12783172726631165,0.3515372574329376,0.7510114312171936
5620.546,-1.699883222579956,8.798690795898438,-1.3503297567367554,5620.546,-0.19600865244865417,0.42397522926330566,0.7659251093864441
5623.076,-1.5705963373184204,8.801085472106934,-1.3120225667953491,5623.076,-0.23009711503982544,0.39734363555908203,0.7648598551750183
5628.135,-1.4844050407409668,8.695740699768066,-1.3670891523361206,5628.135,-0.2695119082927704,0.3675162196159363,0.7605987787246704
5630.664000000001,-1.4891934394836426,8.681375503540039,-1.3670891523361206,5630.664000000001,-0.2929477095603943,0.35047200322151184,0.7574030160903931
5635.723,-1.4652514457702637,8.578424453735352,-1.3287819623947144,5635.723,-0.3376888334751129,0.3206445872783661,0.7605987787246704
5640.782,-1.3646949529647827,8.556877136230469,-1.3455413579940796,5640.782,-0.3536677956581116,0.30466562509536743,0.7669903635978699
5643.312,-1.1827356815338135,8.664615631103516,-1.3455413579940796,5643.312,-0.39095205068588257,0.27696874737739563,0.778708279132843
5648.37,-1.05105459690094,8.65743350982666,-1.3742717504501343,5648.37,-0.4314320981502533,0.2460760772228241,0.7691209316253662
5726.786,-0.730231523513794,9.485827445983887,-0.9193734526634216,5726.786,-0.9033442139625549,0.20772656798362732,0.7776430249214172
5731.844,-0.6129156351089478,9.66539192199707,-0.8619126081466675,5731.844,-0.8884305357933044,0.20666129887104034,0.770186185836792
5739.433,-0.49559974670410156,9.23682975769043,-1.2689268589019775,5739.433,-0.9555422067642212,0.20240023732185364,0.7158576846122742
5744.491,-0.5051765441894531,9.5408935546875,-0.7972691655158997,5744.491,-0.9747169613838196,0.18642127513885498,0.7147924304008484
5747.022,-0.5841852426528931,9.418789863586426,-0.7948749661445618,5747.022,-0.9416937828063965,0.1757686287164688,0.7201187610626221
5752.08,-0.49320554733276367,9.536105155944824,-0.8451532125473022,5752.08,-0.9374327063560486,0.15872439742088318,0.7371630072593689
5754.61,-0.40701428055763245,9.63187313079834,-0.7254431247711182,5754.61,-0.9342368841171265,0.148071750998497,0.7403587698936462
5759.669,-0.26096799969673157,9.832986831665039,-0.646434485912323,5759.669,-0.9331716299057007,0.1299622654914856,0.7179882526397705
5827.966,-0.22266076505184174,10.831368446350098,0.009576806798577309,5827.966,-0.6902913451194763,-0.14913702011108398,0.07243797928094864
5830.495,-0.1843535304069519,10.512939453125,-0.038307227194309235,5830.495,-0.6732470989227295,-0.1533980816602707,0.04261057823896408
5835.554,-0.2944868206977844,10.675745010375977,-0.05267243832349777,5835.554,-0.6178533434867859,-0.1672465205192566,0.055393751710653305
5840.613,-0.6512228846549988,10.745177268981934,0.15083470940589905,5840.613,-0.5848301649093628,-0.1757686287164688,0.05645901337265968
5843.143,-0.2849099934101105,10.132261276245117,-0.043095629662275314,5843.143,-0.5336974859237671,-0.16937704384326935,0.03621898964047432
5848.201,-0.4357447028160095,10.292673110961914,0.004788403399288654,5848.201,-0.5102616548538208,-0.17896442115306854,0.049002163112163544
5850.731,-0.5817909836769104,10.445901870727539,0.19393034279346466,5850.731,-0.49428269267082214,-0.1768338978290558,0.04793689772486687
5855.79,-0.6703764796257019,10.285490036010742,0.304063618183136,5855.79,-0.46552056074142456,-0.1533980816602707,0.03515372797846794
5919.028,-0.6751648783683777,9.004592895507812,0.8475474119186401,5919.028,-0.8277104496955872,0.2407497614622116,0.5102616548538208
5924.087,-0.5506663918495178,9.165003776550293,0.8810662031173706,5924.087,-0.8575378656387329,0.2652508318424225,0.5241100788116455
5926.617,-0.48602294921875,9.258378028869629,0.8810662031173706,5926.617,-0.8713862895965576,0.2780340015888214,0.5251753926277161
5931.675,-0.3423708379268646,9.425971984863281,0.8786720037460327,5931.675,-0.9086705446243286,0.2918824553489685,0.5070658922195435
5936.734,-0.3519476354122162,9.375694274902344,0.9361328482627869,5936.734,-0.9182579517364502,0.29933929443359375,0.4878911077976227
5939.263999999999,-0.33518823981285095,9.191340446472168,0.9648633003234863,5939.263999999999,-0.9502158761024475,0.3014698326587677,0.4548678994178772
5944.322999999999,-0.38067805767059326,8.892065048217773,0.9002198576927185,5944.322999999999,-0.9757822155952454,0.30892667174339294,0.445280522108078
5946.853,-0.3926490843296051,8.78193187713623,0.8738836050033569,5946.853,-0.993891716003418,0.3067961633205414,0.44847631454467773
6022.738,0.44532153010368347,11.001357078552246,1.7741034030914307,6022.738,-1.0950918197631836,0.16405072808265686,0.041545312851667404
6027.797,0.7206547260284424,10.565611839294434,1.7741034030914307,6027.797,-1.0695254802703857,0.14913702011108398,0.00532632227987051
6032.855,0.5554547905921936,10.699687004089355,1.7405846118927002,6032.855,-1.0471549034118652,0.14061491191387177,0.012783173471689224
6035.3859999999995,0.5123591423034668,10.735600471496582,1.6831238269805908,6035.3859999999995,-1.031175971031189,0.12463593482971191,0.011717909015715122
6042.974,0.5219359993934631,10.620678901672363,1.7142484188079834,6042.974,-0.9246495366096497,0.08522115647792816,0.04580637067556381
6048.033,0.4692635238170624,10.608707427978516,1.8315643072128296,6048.033,-0.9033442139625549,0.07243797928094864,0.06072007119655609
6050.563,0.45489832758903503,10.522516250610352,1.800439715385437,6050.563,-0.873516857624054,0.06391586363315582,0.07669904083013535
6055.621,0.3926490843296051,10.27591323852539,1.824381709098816,6055.621,-0.8117315173149109,0.049002163112163544,0.10972223430871964
6060.679999999999,0.40462008118629456,10.113107681274414,1.8148049116134644,6060.679999999999,-0.7850998640060425,0.04048004746437073,0.13102751970291138
6063.21,0.1173158809542656,10.160991668701172,1.9153614044189453,6063.21,-0.7659251093864441,0.022370552644133568,0.18642127513885498
6068.268,0.2801215946674347,9.861717224121094,1.6903064250946045,6068.268,-0.7637946009635925,0.02556634694337845,0.2034655064344406
6070.799,0.3016694188117981,9.78989028930664,1.843535304069519,6070.799,-0.7531419396400452,0.013848437927663326,0.22050973773002625
6136.565,-0.363918662071228,9.150638580322266,2.786850690841675,6136.565,-0.8330367803573608,0.1342233121395111,0.30786141753196716
6144.154,-0.5793967843055725,9.105149269104004,2.851494312286377,6144.154,-0.8319715261459351,0.1906823366880417,0.2918824553489685
6146.683999999999,-0.5578489899635315,9.20091724395752,2.9879636764526367,6146.683999999999,-0.8490157723426819,0.20559602975845337,0.28442561626434326
6151.7429999999995,-0.5315127968788147,9.23443603515625,2.978386878967285,6151.7429999999995,-0.8511462807655334,0.23435817658901215,0.2599245309829712
6156.8009999999995,-0.5099649429321289,9.493009567260742,2.7940332889556885,6156.8009999999995,-0.8479504585266113,0.24820661544799805,0.23435817658901215
6159.331,0.5219359993934631,8.209717750549316,3.5865142345428467,6159.331,-0.6146575808525085,0.22796659171581268,0.07776430249214172
6164.39,-2.2385785579681396,6.763619899749756,1.9153614044189453,6164.39,-1.1824434995651245,0.38349518179893494,0.017044231295585632
6166.919,-1.5945383310317993,10.551246643066406,5.861005783081055,6166.919,-1.5808523893356323,0.35047200322151184,0.11504855751991272
6270.63,0.304063618183136,9.272743225097656,3.6942532062530518,6270.63,-1.1451592445373535,0.42823630571365356,0.022370552644133568
6280.747,0.395043283700943,9.215282440185547,3.7684733867645264,6280.747,-1.1345065832138062,0.41971418261528015,-0.019174760207533836
6283.277,0.47165772318840027,9.550470352172852,3.8283286094665527,6283.277,-1.1323760747909546,0.4069310128688812,-0.03515372797846794
6288.335,0.6416460275650024,9.655815124511719,3.845088005065918,6288.335,-1.1078749895095825,0.39627838134765625,-0.07989483326673508
6290.866,0.6584054827690125,9.720458984375,3.995922565460205,6290.866,-1.0823086500167847,0.38349518179893494,-0.09693906456232071
6295.924,0.7589619159698486,9.81143856048584,3.97916316986084,6295.924,-1.0535465478897095,0.36858150362968445,-0.15446333587169647
6298.454000000001,0.7374141216278076,9.804255485534668,4.017470359802246,6298.454000000001,-1.0333064794540405,0.35899412631988525,-0.18322548270225525
6303.513,0.7948749661445618,9.818621635437012,4.060565948486328,6303.513,-1.0098706483840942,0.33555829524993896,-0.23755396902561188
6376.868,-0.05985504388809204,8.329427719116211,4.4532151222229,6376.868,-0.5965480804443359,0.0511326938867569,-0.23861923813819885
6379.399,-0.3423708379268646,8.063671112060547,4.659116744995117,6379.399,-0.5784385800361633,0.04793689772486687,-0.20985709130764008
6386.987,-0.3926490843296051,7.805097579956055,4.580107688903809,6386.987,-0.6178533434867859,0.07563377171754837,-0.1342233121395111
6392.045999999999,-0.2298433631658554,7.826645374298096,4.4723687171936035,6392.045999999999,-0.6306365132331848,0.092678003013134,-0.09054747968912125
6394.576,-0.2753331959247589,7.8960771560668945,4.455609321594238,6394.576,-0.6317018270492554,0.09906959533691406,-0.06604639440774918
6399.634,-0.2753331959247589,7.951143741607666,4.577713489532471,6399.634,-0.629571259021759,0.11291802674531937,-0.02556634694337845
6404.693,-0.1604115068912506,7.953537940979004,4.438849925994873,6404.693,-0.629571259021759,0.12250541150569916,-0.006391586735844612
6407.223,-0.14365209639072418,7.953537940979004,4.503493309020996,6407.223,-0.6327670812606812,0.12357067316770554,0.026631610468029976
6490.697,-0.09816227108240128,7.560888767242432,5.207388877868652,6490.697,-0.7435545921325684,0.02556634694337845,0.12250541150569916
6495.756,-0.1843535304069519,7.82185697555542,5.351040840148926,6495.756,-0.7627293467521667,0.02130528911948204,0.13635385036468506
6500.814,-0.1604115068912506,7.9176249504089355,5.224148273468018,6500.814,-0.7776430249214172,0.022370552644133568,0.12889699637889862
6503.345,-0.17477671802043915,7.726089000701904,5.243301868438721,6503.345,-0.7808388471603394,0.022370552644133568,0.11824434995651245
6508.403,-0.17956513166427612,7.73087739944458,5.276820659637451,6508.403,-0.778708279132843,0.02130528911948204,0.12357067316770554
6510.936,-0.21787235140800476,7.879317760467529,5.34625244140625,6510.936,-0.761664092540741,0.019174760207533836,0.13635385036468506
6515.992,-0.06703764945268631,8.010998725891113,5.279214859008789,6515.992,-0.7819041013717651,0.026631610468029976,0.12144014239311218
6518.522,-0.05746084079146385,8.087613105773926,5.4252610206604,6518.522,-0.7925567626953125,0.024501081556081772,0.10759170353412628
6584.288,-0.15322890877723694,8.341399192810059,5.918466567993164,6584.288,-0.5645901560783386,0.052197955548763275,0.12889699637889862
6586.818,-0.12928688526153564,8.221688270568848,5.892130374908447,6586.818,-0.5432848334312439,0.05752427875995636,0.13315805792808533
6591.877,-0.12210428714752197,8.157045364379883,5.7772088050842285,6591.877,-0.5411543250083923,0.05965480953454971,0.15020228922367096
6596.935,-0.11971008777618408,8.161833763122559,5.784391403198242,6596.935,-0.5400890707969666,0.058589544147253036,0.15233281254768372
6599.465999999999,-0.10055647045373917,8.255207061767578,5.75326681137085,6599.465999999999,-0.5390238165855408,0.0649811327457428,0.148071750998497
6604.523999999999,-0.026336219161748886,8.343792915344238,5.772420406341553,6604.523999999999,-0.5368932485580444,0.06391586363315582,0.14487595856189728
6607.054,0.002394201699644327,8.449137687683105,5.853823184967041,6607.054,-0.5198490619659424,0.06285060197114944,0.15446333587169647
6612.113,0.023942016065120697,8.516175270080566,5.870582580566406,6612.113,-0.5113269090652466,0.049002163112163544,0.16937704384326935
6675.351,-0.27054479718208313,8.274360656738281,6.265625953674316,6675.351,0.034088462591171265,0.10333064943552017,0.04048004746437073
6680.409,-0.26815059781074524,8.269572257995605,6.289567947387695,6680.409,0.05006742849946022,0.11398329585790634,0.037284255027770996
6682.942,-0.24181437492370605,8.180987358093262,6.308721542358398,6682.942,0.07989483326673508,0.11930961906909943,0.02556634694337845
6687.9980000000005,-0.19871874153614044,8.109161376953125,6.253654956817627,6687.9980000000005,0.09054747968912125,0.13102751970291138,0.02130528911948204
6690.527999999999,-0.19393034279346466,8.1139497756958,6.2632317543029785,6690.527999999999,0.09480853378772736,0.1342233121395111,0.020240023732185364
6695.5869999999995,-0.1628057211637497,8.192957878112793,6.27280855178833,6695.5869999999995,0.1065264418721199,0.13635385036468506,0.02556634694337845
6700.6449999999995,-0.14365209639072418,8.178592681884766,6.258443355560303,6700.6449999999995,0.11398329585790634,0.13741910457611084,0.027696875855326653
6703.176,-0.0454898327589035,8.269572257995605,6.327875137329102,6703.176,0.1395496428012848,0.13741910457611084,0.03302319720387459
6720.882,0.1604115068912506,8.185775756835938,6.215347766876221,6720.882,0.19600865244865417,0.1161138191819191,0.00532632227987051
6728.469999999999,0.1388636976480484,8.276755332946777,6.256049156188965,6728.469999999999,0.22050973773002625,0.09161274135112762,0.015978965908288956
6731.0,0.2322375625371933,8.315062522888184,6.248866558074951,6731.0,0.23968449234962463,0.07563377171754837,0.006391586735844612
6736.059,0.20350714027881622,8.291120529174805,6.2201361656188965,6736.059,0.2599245309829712,0.05645901337265968,-0.003195793367922306
6738.589,0.1628057211637497,8.245630264282227,6.296750545501709,6738.589,0.27164241671562195,0.05326322093605995,-0.004261057823896408
6743.648,0.17238251864910126,8.26239013671875,6.320692539215088,6743.648,0.28549087047576904,0.03834952041506767,-0.004261057823896408
6748.706,0.1843535304069519,8.31985092163086,6.356605529785156,6748.706,0.29401299357414246,0.030892668291926384,-0.003195793367922306
6751.237,0.23702596127986908,8.487444877624512,6.31829833984375,6751.237,0.3121224641799927,0.019174760207533836,-0.011717909015715122
6811.944,-0.12449848651885986,8.96389102935791,6.04775333404541,6811.944,0.7350324392318726,-0.13741910457611084,-0.09800432622432709
6814.473999999999,-0.08379705995321274,9.10993766784668,6.035782337188721,6814.473999999999,0.754207193851471,-0.13741910457611084,-0.1065264418721199
6819.532999999999,-0.20111294090747833,9.030928611755371,6.009446144104004,6819.532999999999,0.8010788559913635,-0.13528858125209808,-0.14168016612529755
6824.593,-0.24660277366638184,9.028534889221191,5.935225963592529,6824.593,0.8223841190338135,-0.13209278881549835,-0.15872439742088318
6827.1230000000005,-0.363918662071228,8.829815864562988,5.904101371765137,6827.1230000000005,0.8617989420890808,-0.12357067316770554,-0.19174759089946747
6832.18,-0.3687070608139038,8.734047889709473,5.822698593139648,6832.18,0.9097357988357544,-0.1065264418721199,-0.18748654425144196
6834.71,-0.36152446269989014,8.765172004699707,5.789179801940918,6834.71,0.9321063756942749,-0.1022653877735138,-0.18642127513885498
6839.769,-0.2346317619085312,8.89685344696045,5.628767967224121,6839.769,0.9512811303138733,-0.0884169489145279,-0.18855179846286774
6958.656,-0.1867477297782898,8.147468566894531,3.8977603912353516,6958.656,1.3187973499298096,-0.09374327212572098,-0.23861923813819885
6963.714999999999,-0.15322890877723694,7.960720539093018,3.7229835987091064,6963.714999999999,1.3049489259719849,-0.09587379544973373,-0.22583605349063873
6968.772999999999,-0.21547815203666687,7.977479934692383,3.708618402481079,6968.772999999999,1.2911005020141602,-0.10013485699892044,-0.21198761463165283
6971.304,-0.2849099934101105,8.018181800842285,3.581725835800171,6971.304,1.2687299251556396,-0.1022653877735138,-0.18322548270225525
6976.362,-0.272938996553421,8.17380428314209,3.529053211212158,6976.362,1.249555230140686,-0.10865697264671326,-0.15020228922367096
6978.892,-0.3256114423274994,8.288725852966309,3.557783842086792,6978.892,1.2389025688171387,-0.11291802674531937,-0.14168016612529755
6983.951,-0.33758243918418884,8.394071578979492,3.5697548389434814,6983.951,1.2229235172271729,-0.10865697264671326,-0.13209278881549835
6986.481000000001,-0.38067805767059326,8.453926086425781,3.648763418197632,6986.481000000001,1.2186625003814697,-0.11078750342130661,-0.1257012039422989
7047.189,-0.33518823981285095,8.604761123657227,3.179499864578247,7047.189,1.1313108205795288,-0.011717909015715122,0.024501081556081772
7054.777999999999,-0.40462008118629456,8.683769226074219,2.918531894683838,7054.777999999999,1.1036139726638794,-0.02130528911948204,0.06285060197114944
7059.835999999999,-0.20350714027881622,8.87291145324707,2.782062292098999,7059.835999999999,1.0918960571289062,-0.03195793181657791,0.08948221057653427
7064.8949999999995,-0.16998831927776337,9.131484985351562,2.846705913543701,7064.8949999999995,1.0844391584396362,-0.041545312851667404,0.09480853378772736
7067.425,-0.14365209639072418,9.402029991149902,2.999934673309326,7067.425,1.0716559886932373,-0.052197955548763275,0.08202536404132843
7072.486,-0.11013327538967133,9.48343276977539,3.155557870864868,7072.486,1.0737864971160889,-0.06178533658385277,0.07137271761894226
7075.014,-0.11252748221158981,9.828198432922363,3.6152446269989014,7075.014,1.0823086500167847,-0.0649811327457428,0.06604639440774918
7080.072999999999,-0.1364694982767105,10.010157585144043,3.936067581176758,7080.072999999999,1.1089402437210083,-0.06391586363315582,0.05965480953454971
7095.25,-0.33758243918418884,9.706093788146973,3.44765043258667,7095.25,1.3102751970291138,-0.04367583990097046,0.05965480953454971
7100.308,-0.3256114423274994,9.255983352661133,2.9951462745666504,7100.308,1.329450011253357,-0.03941478207707405,0.06178533658385277
7102.839,-0.2849099934101105,9.174580574035645,2.8155810832977295,7102.839,1.3209278583526611,-0.03834952041506767,0.06391586363315582
7107.897,-0.1628057211637497,9.157821655273438,2.6791117191314697,7107.897,1.286839485168457,-0.04048004746437073,0.058589544147253036
7110.427,-0.08379705995321274,9.251194953918457,2.6455929279327393,7110.427,1.266599416732788,-0.03515372797846794,0.04261057823896408
7115.486,-0.11252748221158981,9.028534889221191,2.5067291259765625,7115.486,1.2463593482971191,-0.03621898964047432,0.008522115647792816
7120.544,-0.11013327538967133,8.925583839416504,2.499546527862549,7120.544,1.2303804159164429,-0.03195793181657791,-0.002130528911948204
7123.075,-0.20111294090747833,8.808267593383789,2.3989901542663574,7123.075,1.2016183137893677,-0.03621898964047432,-0.001065264455974102
7188.841,-0.19632454216480255,9.816226959228516,1.9129672050476074,7188.841,1.4008227586746216,-0.08415588736534119,0.024501081556081772
7191.371,0.1604115068912506,10.735600471496582,1.7741034030914307,7191.371,1.471130132675171,-0.1022653877735138,-0.012783173471689224
7196.429,0.6129156351089478,11.63103199005127,1.6352397203445435,7196.429,1.5393071174621582,-0.12783172726631165,-0.09693906456232071
7198.959999999999,-0.07182604819536209,8.188169479370117,1.8483237028121948,7198.959999999999,1.2729909420013428,-0.03834952041506767,-0.4069310128688812
7204.018999999999,-0.6631938815116882,10.110713958740234,3.160346269607544,7204.018999999999,1.271925687789917,-0.08309062570333481,-0.3238403797149658
7206.548,-0.7398083209991455,8.300697326660156,2.2026655673980713,7206.548,1.5520902872085571,-0.08202536404132843,-0.22370553016662598
7211.607,-0.035913024097681046,9.832986831665039,2.188300371170044,7211.607,1.490304946899414,-0.07137271761894226,0.012783173471689224
7216.665,0.06464344263076782,10.821791648864746,1.2282254695892334,7216.665,1.4988270998001099,-0.07137271761894226,0.05965480953454971
7282.434,-0.5386953949928284,9.725247383117676,0.30885201692581177,7282.434,1.540372371673584,-0.13635385036468506,0.03302319720387459
7287.493,-0.9792284965515137,9.17697525024414,0.4692635238170624,7287.493,1.4977617263793945,-0.1299622654914856,0.034088462591171265
7292.5509999999995,-1.0462661981582642,9.545681953430176,0.8762778043746948,7292.5509999999995,1.4689996242523193,-0.11504855751991272,0.05432848632335663
7295.081,-0.8954314589500427,9.114726066589355,0.6177040338516235,7295.081,1.5243934392929077,-0.09587379544973373,0.08628641813993454
7300.139,-0.8738836050033569,9.193734169006348,0.5985504388809204,7300.139,1.4444985389709473,-0.06817692518234253,0.11291802674531937
7302.67,-0.7709329724311829,9.332598686218262,0.3974374830722809,7302.67,1.428519606590271,-0.05432848632335663,0.11185276508331299
7307.729,-0.6129156351089478,9.251194953918457,0.3016694188117981,7307.729,1.3827131986618042,-0.027696875855326653,0.08415588736534119
7312.787,-0.42377370595932007,9.378087997436523,0.33518823981285095,7312.787,1.3550163507461548,-0.01810949482023716,0.06604639440774918
7327.965,-0.07900865375995636,9.390059471130371,-0.05985504388809204,7327.965,1.2335761785507202,0.024501081556081772,0.004261057823896408
7330.495,0.05746084079146385,9.512163162231445,-0.21787235140800476,7330.495,1.2080098390579224,0.022370552644133568,-0.002130528911948204
7335.553,0.17717093229293823,9.677363395690918,-0.24420857429504395,7335.553,1.192030906677246,0.019174760207533836,-0.023435818031430244
7340.612,0.2513911724090576,9.658209800720215,-0.4189853072166443,7340.612,1.1867045164108276,0.012783173471689224,-0.02556634694337845
7343.142,0.1412578970193863,9.653421401977539,-0.5674257874488831,7343.142,1.1962919235229492,-0.008522115647792816,-0.02876213937997818
7348.200000000001,0.1149216815829277,9.48343276977539,-0.7038952708244324,7348.200000000001,1.1824434995651245,-0.03302319720387459,-0.01810949482023716
7350.731,0.12449848651885986,9.548076629638672,-0.6823474764823914,7350.731,1.1696603298187256,-0.0511326938867569,-0.004261057823896408
7355.789,0.06703764945268631,9.694122314453125,-0.8068459630012512,7355.789,1.098287582397461,-0.09054747968912125,0.01810949482023716
7419.027,0.014365210197865963,13.828908920288086,-5.367800235748291,7419.027,1.2634036540985107,-0.2695119082927704,-0.09054747968912125
7424.086,0.2585737705230713,13.656526565551758,3.7828385829925537,7424.086,1.0024138689041138,-0.25779399275779724,-0.5518069863319397
7426.616,-0.42377370595932007,11.652579307556152,-3.44765043258667,7426.616,1.3251889944076538,-0.11717908829450607,-0.7105313539505005
7431.675,-3.2345664501190186,3.794809579849243,2.164358377456665,7431.675,1.3198626041412354,-0.17044231295585632,-0.4495415985584259
7436.733,-4.185064792633057,8.791508674621582,-3.378218650817871,7436.733,1.2506204843521118,-0.029827404767274857,-0.07456851005554199
7439.263000000001,-0.16998831927776337,9.713275909423828,-0.9744400978088379,7439.263000000001,1.6628777980804443,-0.2652508318424225,0.24820661544799805
7444.322,0.8236053586006165,13.891158103942871,0.2298433631658554,7444.322,1.2932310104370117,-0.11717908829450607,0.03621898964047432
7446.852,0.5051765441894531,14.221558570861816,-2.4827871322631836,7446.852,1.3326457738876343,-0.06604639440774918,-0.20026971399784088
7451.9130000000005,-1.0103530883789062,9.892841339111328,-1.1851298809051514,7451.9130000000005,1.639441967010498,-0.09054747968912125,-0.509196400642395
7454.441,-1.5658079385757446,8.841787338256836,-2.717418909072876,7454.441,1.5733956098556519,-0.04261057823896408,-0.4921521544456482
7459.499,-1.7860745191574097,8.738836288452148,-1.9919757843017578,7459.499,1.5137407779693604,-0.04580637067556381,-0.2652508318424225
7464.558,-1.0342950820922852,9.275136947631836,-1.3982137441635132,7464.558,1.4668691158294678,-0.014913702383637428,-0.1672465205192566
7563.21,-0.44532153010368347,8.334216117858887,-2.9041666984558105,7563.21,1.1408982276916504,0.1810949593782425,-0.06285060197114944
7570.798,-0.004788403399288654,7.666234016418457,-3.2537200450897217,7570.798,1.0365022420883179,0.185356006026268,-0.1395496428012848
7575.857,0.13168109953403473,7.836222171783447,-3.471592426300049,7575.857,0.9832390546798706,0.15872439742088318,-0.12889699637889862
7580.915,0.2298433631658554,8.078036308288574,-3.5913026332855225,7580.915,0.9384979605674744,0.1533980816602707,-0.1257012039422989
7583.446,0.7852981686592102,8.44434928894043,-3.976768970489502,7583.446,0.9022789597511292,0.12889699637889862,-0.12463593482971191
7588.504000000001,0.9600749015808105,8.71728801727295,-3.9815573692321777,7588.504000000001,0.9235842823982239,0.09587379544973373,-0.11185276508331299
7591.034,1.0678139925003052,9.20091724395752,-4.477157115936279,7591.034,0.9747169613838196,0.03195793181657791,-0.11504855751991272
7596.093,0.7613561153411865,8.456320762634277,-4.730942726135254,7596.093,0.9832390546798706,-0.034088462591171265,-0.1672465205192566
7671.978,-0.6512228846549988,8.470685958862305,-4.414907932281494,7671.978,1.1739213466644287,-0.05006742849946022,0.09480853378772736
7674.508000000001,-0.6129156351089478,8.62630844116211,-4.37420654296875,7674.508000000001,1.1707255840301514,-0.03621898964047432,0.10333064943552017
7679.567,-0.7829039692878723,8.597578048706055,-4.37420654296875,7679.567,1.130245566368103,0.001065264455974102,0.06924218684434891
7684.625,-0.8355764150619507,8.224082946777344,-4.41969633102417,7684.625,1.1185276508331299,0.01810949482023716,0.06711165606975555
7687.156,-0.8786720037460327,8.365341186523438,-4.534617900848389,7687.156,1.1046792268753052,0.04793689772486687,0.1299622654914856
7692.214,-0.45489832758903503,8.7484130859375,-4.7836151123046875,7692.214,1.0950918197631836,0.06817692518234253,0.1672465205192566
7694.744,-0.30885201692581177,8.820239067077637,-4.824316501617432,7694.744,1.088700294494629,0.07350324839353561,0.16298545897006989
7699.803,-0.45489832758903503,8.652645111083984,-4.879383087158203,7699.803,1.0897655487060547,0.07456851005554199,0.148071750998497
7763.041,-0.44532153010368347,8.564059257507324,-5.231330871582031,7763.041,1.187769889831543,-0.05326322093605995,0.1395496428012848
7768.099999999999,-0.569819986820221,8.432378768920898,-5.410895824432373,7768.099999999999,1.210140347480774,-0.03515372797846794,0.14487595856189728
7770.63,-0.5770025849342346,8.324639320373535,-5.355829238891602,7770.63,1.2229235172271729,-0.02556634694337845,0.14700649678707123
7775.688,-0.5051765441894531,8.006210327148438,-5.504269599914551,7775.688,1.2271846532821655,-0.00532632227987051,0.14913702011108398
7780.747,-0.5554547905921936,7.908048152923584,-5.513846397399902,7780.747,1.2144014835357666,0.006391586735844612,0.15552860498428345
7783.277,-0.6847416758537292,7.960720539093018,-5.449203014373779,7783.277,1.2037488222122192,0.024501081556081772,0.15659387409687042
7788.335,-0.7589619159698486,7.891288757324219,-5.583278179168701,7788.335,1.174986720085144,0.04687163606286049,0.18216021358966827
7790.866,-0.7541735172271729,8.111555099487305,-5.43723201751709,7790.866,1.1760519742965698,0.05432848632335663,0.19707392156124115
7856.6320000000005,-0.2777273952960968,7.829039573669434,-5.906495571136475,7856.6320000000005,1.1163971424102783,-0.011717909015715122,0.21198761463165283
7859.163,-0.17717093229293823,6.7277069091796875,-6.088454723358154,7859.163,1.1408982276916504,-0.013848437927663326,0.2045307755470276
7864.221,-0.13168109953403473,7.275979042053223,-5.779603004455566,7864.221,1.1185276508331299,-0.03195793181657791,0.22796659171581268
7866.751,-0.0071826050989329815,7.433996200561523,-6.01423454284668,7866.751,1.088700294494629,-0.020240023732185364,0.20133498311042786
7871.81,0.16998831927776337,7.445967197418213,-6.172252178192139,7871.81,1.0588728189468384,-0.012783173471689224,0.15659387409687042
7876.868,-0.016759412363171577,7.378929615020752,-6.1530985832214355,7876.868,1.0865696668624878,-0.022370552644133568,0.15872439742088318
7879.399,-0.05027823522686958,7.249642848968506,-6.421248912811279,7879.399,1.0972223281860352,-0.023435818031430244,0.16511598229408264
7884.4580000000005,-0.047884032130241394,7.096413612365723,-6.390124320983887,7884.4580000000005,1.0823086500167847,-0.023435818031430244,0.16298545897006989
7899.635,0.05985504388809204,7.003039836883545,-6.555324077606201,7899.635,1.0812433958053589,-0.06924218684434891,0.13848437368869781
7904.693,0.038307227194309235,7.060500621795654,-6.603208065032959,7904.693,1.0844391584396362,-0.07669904083013535,0.148071750998497
7907.223,0.21547815203666687,7.350199222564697,-6.610390663146973,7907.223,1.0993528366088867,-0.10013485699892044,0.16298545897006989
7912.282,0.37828385829925537,7.33583402633667,-6.495469093322754,7912.282,1.1217234134674072,-0.12889699637889862,0.14700649678707123
7919.871,0.23942017555236816,7.184999465942383,-6.502651691436768,7919.871,1.150485634803772,-0.1715075671672821,0.13741910457611084
7924.929,0.23702596127986908,7.108384609222412,-6.514622688293457,7924.929,1.1515508890151978,-0.18429075181484222,0.1395496428012848
7927.459,0.14365209639072418,7.206547260284424,-6.610390663146973,7927.459,1.1611381769180298,-0.21518340706825256,0.15659387409687042
7932.518,0.1364694982767105,7.266402244567871,-6.607996463775635,7932.518,1.1856392621994019,-0.2269013226032257,0.16405072808265686
8056.464,-0.016759412363171577,5.061342239379883,-7.161057472229004,8056.464,0.8777778744697571,-0.03515372797846794,0.15659387409687042
8058.994000000001,-0.10534487664699554,4.460397720336914,-7.237671852111816,8058.994000000001,0.8490157723426819,-0.06711165606975555,0.1672465205192566
8064.053,-0.2849099934101105,5.70777702331543,-7.644686222076416,8064.053,0.8010788559913635,-0.07137271761894226,0.17044231295585632
8066.583,-0.17717093229293823,5.762843608856201,-7.558494567871094,8066.583,0.7765777707099915,-0.07350324839353561,0.12783172726631165
8071.642000000001,0.08858546614646912,5.540182590484619,-7.888894557952881,8071.642000000001,0.7723166942596436,-0.08735167980194092,0.07456851005554199
8076.700000000001,-0.08140286058187485,5.609614372253418,-7.642292022705078,8076.700000000001,0.7637946009635925,-0.10333064943552017,0.06285060197114944
8079.2300000000005,-0.49559974670410156,5.3582234382629395,-7.60637903213501,8079.2300000000005,0.7424892783164978,-0.11398329585790634,-0.019174760207533836
8084.289,-0.33518823981285095,4.0964789390563965,-7.884106159210205,8084.289,0.7062703371047974,-0.11291802674531937,-0.034088462591171265
8155.116,-0.6536170840263367,4.642356872558594,-7.977479934692383,8155.116,0.4261057674884796,-0.07669904083013535,0.13848437368869781
8160.174,-0.4118026793003082,4.620809078216553,-8.123526573181152,8160.174,0.3813646733760834,-0.049002163112163544,0.1161138191819191
8162.704,-0.2944868206977844,4.757278919219971,-8.101978302001953,8162.704,0.36325517296791077,-0.04261057823896408,0.10972223430871964
8167.763000000001,-0.19632454216480255,4.855441093444824,-8.037335395812988,8167.763000000001,0.34514567255973816,-0.026631610468029976,0.08948221057653427
8172.822,-0.17238251864910126,4.862623691558838,-8.066065788269043,8172.822,0.3398193418979645,-0.017044231295585632,0.09054747968912125
8175.352,-0.18914192914962769,4.924872875213623,-8.066065788269043,8175.352,0.33236250281333923,-0.00532632227987051,0.09800432622432709
8180.41,-0.10534487664699554,5.006275653839111,-8.04691219329834,8180.41,0.33236250281333923,0.003195793367922306,0.10439591109752655
8182.942000000001,-0.07422025501728058,5.125985622406006,-8.039729118347168,8182.942000000001,0.33236250281333923,0.009587380103766918,0.10759170353412628
8248.707,-0.586579442024231,4.824316501617432,-8.087613105773926,8248.707,-0.18748654425144196,0.02130528911948204,0.09693906456232071
8251.237,-0.5793967843055725,4.759673118591309,-7.95832633972168,8251.237,-0.24394555389881134,0.03302319720387459,0.04687163606286049
8258.826,-0.40701428055763245,4.838681697845459,-8.058882713317871,8258.826,-0.29827404022216797,0.041545312851667404,0.022370552644133568
8263.885,-0.31124621629714966,4.8602294921875,-8.008605003356934,8263.885,-0.333427757024765,0.049002163112163544,-0.009587380103766918
8268.946,-0.2777273952960968,4.8482584953308105,-8.042123794555664,8268.946,-0.3472762107849121,0.04367583990097046,-0.019174760207533836
8271.473,-0.2992752194404602,4.812345504760742,-7.999027729034424,8271.473,-0.3792341351509094,0.04367583990097046,-0.03621898964047432
8276.532,-0.31842881441116333,4.702212333679199,-8.027758598327637,8276.532,-0.4026699662208557,0.04261057823896408,-0.049002163112163544
8279.062,-0.2513911724090576,4.711789131164551,-8.039729118347168,8279.062,-0.45699843764305115,0.04580637067556381,-0.0511326938867569
8347.359,-0.38067805767059326,6.382941722869873,-7.9415669441223145,8347.359,-0.7691209316253662,0.09374327212572098,0.13209278881549835
8354.947,-0.40462008118629456,6.478709697723389,-7.864952564239502,8354.947,-0.7669903635978699,0.10972223430871964,0.13209278881549835
8360.006,-0.5171475410461426,6.260837554931641,-7.800309181213379,8360.006,-0.7520766854286194,0.12357067316770554,0.1342233121395111
8362.536,-0.5434837937355042,6.1315507888793945,-7.85537576675415,8362.536,-0.7478156089782715,0.13315805792808533,0.14168016612529755
8367.595,-0.44771572947502136,6.200982570648193,-7.845798969268799,8367.595,-0.7584682703018188,0.15126754343509674,0.14594122767448425
8372.653,-0.47884035110473633,6.19379997253418,-7.785943984985352,8372.653,-0.7723166942596436,0.16298545897006989,0.13528858125209808
8375.184000000001,-0.5889736413955688,5.91128396987915,-7.7643961906433105,8375.184000000001,-0.7936220169067383,0.1896170675754547,0.10546118021011353
8380.242,-0.6871358752250671,5.9519853591918945,-7.740454196929932,8380.242,-0.8223841190338135,0.2130528837442398,0.1022653877735138
8395.42,-0.48602294921875,5.947196960449219,-7.5417351722717285,8395.42,-0.9033442139625549,0.2822950780391693,0.05432848632335663
8400.478,-0.4381389021873474,5.884947776794434,-7.568071365356445,8400.478,-0.9139968752861023,0.29507824778556824,0.049002163112163544
8403.008,-0.3280056416988373,5.925649166107178,-7.539340972900391,8403.008,-0.9342368841171265,0.31744879484176636,0.04261057823896408
8408.067000000001,-0.26096799969673157,5.987898349761963,-7.393294811248779,8408.067000000001,-0.9619337916374207,0.33662354946136475,0.02876213937997818
8410.597,-0.26815059781074524,5.9974751472473145,-7.364564418792725,8410.597,-0.9725863933563232,0.3472762107849121,0.019174760207533836
8415.656,-0.2513911724090576,5.961562156677246,-7.319074630737305,8415.656,-0.9843043088912964,0.3675162196159363,0.00532632227987051
8420.714,-0.26336219906806946,5.940014362335205,-7.266402244567871,8420.714,-0.9896306395530701,0.3771035969257355,-0.001065264455974102
8423.244,-0.3280056416988373,5.87776517868042,-7.163451671600342,8423.244,-0.9992180466651917,0.3952130973339081,-0.008522115647792816
8483.952000000001,0.47405192255973816,5.702988624572754,-6.172252178192139,8483.952000000001,-1.2761868238449097,0.5560680031776428,-0.10759170353412628
8486.482,0.4405331015586853,5.612008571624756,-6.13633918762207,8486.482,-1.2889699935913086,0.5592638254165649,-0.10759170353412628
8491.541,0.47884035110473633,5.497087001800537,-5.999869346618652,8491.541,-1.3251889944076538,0.5709817409515381,-0.11291802674531937
8496.6,0.42377370595932007,5.418078422546387,-5.9304375648498535,8496.6,-1.3390374183654785,0.5773733258247375,-0.11824434995651245
8499.13,0.33039984107017517,5.288791656494141,-5.822698593139648,8499.13,-1.3933658599853516,0.5997438430786133,-0.12676647305488586
8504.187999999998,0.090979665517807,4.829104900360107,-5.825092792510986,8504.187999999998,-1.4668691158294678,0.6242449283599854,-0.13315805792808533
8506.717999999999,0.009576806798577309,4.991910457611084,-5.849034786224365,8506.717999999999,-1.5020228624343872,0.6306365132331848,-0.10759170353412628
8511.777,0.026336219161748886,5.094861030578613,-5.9735331535339355,8511.777,-1.5616776943206787,0.6508765816688538,-0.1065264418721199
8587.662999999999,0.1843535304069519,8.130708694458008,-4.9799394607543945,8587.662999999999,-1.5808523893356323,0.482564777135849,0.041545312851667404
8592.721,0.19632454216480255,8.169015884399414,-4.965574264526367,8592.721,-1.570199728012085,0.4910869002342224,0.0511326938867569
8595.251,0.1149216815829277,7.94635534286499,-5.008669853210449,8595.251,-1.5627429485321045,0.509196400642395,0.044741105288267136
8600.31,0.16519992053508759,7.527369976043701,-5.154716491699219,8600.31,-1.5925703048706055,0.5347627401351929,0.03834952041506767
8602.84,0.2585737705230713,7.575253963470459,-5.250484466552734,8602.84,-1.6160061359405518,0.5411543250083923,0.044741105288267136
8607.899,0.7206547260284424,7.86734676361084,-5.4252610206604,8607.899,-1.6575514078140259,0.5539374947547913,0.055393751710653305
8610.429,0.9648633003234863,8.02536392211914,-5.535394191741943,8610.429,-1.6660735607147217,0.5539374947547913,0.05006742849946022
8615.487,1.3551181554794312,8.178592681884766,-5.829881191253662,8615.487,-1.6660735607147217,0.5358279943466187,0.03941478207707405
8678.725,-0.4429273009300232,8.628703117370605,-4.532223701477051,8678.725,-1.0844391584396362,-0.11824434995651245,0.07350324839353561
8683.784,-0.5363011956214905,8.899248123168945,-4.271255970001221,8683.784,-1.0897655487060547,-0.1022653877735138,0.09480853378772736
8688.843,-0.5315127968788147,9.14345645904541,-4.410119533538818,8688.843,-1.1121360063552856,-0.08415588736534119,0.0788295641541481
8691.373,-0.22266076505184174,9.311050415039062,-4.168305397033691,8691.373,-1.1323760747909546,-0.05645901337265968,0.01065264455974102
8696.431,-0.19153612852096558,9.315838813781738,-4.1395745277404785,8696.431,-1.1313108205795288,-0.03941478207707405,-0.03195793181657791
8698.962,-0.05267243832349777,9.062053680419922,-4.132391929626465,8698.962,-1.1270498037338257,-0.01065264455974102,-0.09800432622432709
8704.022,-0.10773907601833344,8.760383605957031,-4.165910720825195,8704.022,-1.1408982276916504,0.02130528911948204,-0.11717908829450607
8706.55,-0.07422025501728058,8.825027465820312,-4.000710964202881,8706.55,-1.1334413290023804,0.03302319720387459,-0.10759170353412628
8772.317,-0.6200982332229614,9.160215377807617,-3.3734302520751953,8772.317,-1.1515508890151978,0.13315805792808533,-0.05326322093605995
8774.847,-0.5793967843055725,9.174580574035645,-3.3662476539611816,8774.847,-1.1451592445373535,0.14487595856189728,-0.03621898964047432
8779.912,-0.5410895943641663,9.289502143859863,-3.292027235031128,8779.912,-1.1483550071716309,0.16085493564605713,-0.014913702383637428
8782.436,-0.6560112833976746,9.35654067993164,-3.2106244564056396,8782.436,-1.1483550071716309,0.17044231295585632,-0.020240023732185364
8787.494999999999,-0.3471592366695404,9.121908187866211,-3.3255462646484375,8787.494999999999,-1.1739213466644287,0.1992044448852539,-0.03941478207707405
8792.553,-0.3208230137825012,9.344569206237793,-3.155557870864868,8792.553,-1.1835087537765503,0.20133498311042786,-0.044741105288267136
8795.083,-0.3471592366695404,9.701305389404297,-3.023876667022705,8795.083,-1.2016183137893677,0.22050973773002625,-0.09161274135112762
8800.141,-0.1412578970193863,9.464279174804688,-3.0334534645080566,8800.141,-1.2186625003814697,0.23968449234962463,-0.16937704384326935
8860.849999999999,0.3280056416988373,9.885659217834473,-2.5091233253479004,8860.849999999999,-1.2154667377471924,0.20026971399784088,-0.6860302686691284
8863.38,0.7182605266571045,9.890447616577148,-2.518700122833252,8863.38,-1.1707255840301514,0.16618125140666962,-0.6338323354721069
8876.027,0.6823474764823914,10.371682167053223,-2.1954829692840576,8876.027,-1.0737864971160889,0.09374327212572098,-0.5336974859237671
8878.557,0.6536170840263367,10.45547866821289,-2.341529369354248,8878.557,-1.042893886566162,0.0884169489145279,-0.5187837481498718
8883.616,0.16519992053508759,10.457873344421387,-2.070984363555908,8883.616,-1.01093590259552,0.07030745595693588,-0.4996090233325958
8888.673999999999,0.07661445438861847,10.18493366241455,-1.9919757843017578,8888.673999999999,-0.9800432920455933,0.07030745595693588,-0.48576056957244873
8891.205,-0.026336219161748886,9.765948295593262,-2.0877439975738525,8891.205,-0.9246495366096497,0.07030745595693588,-0.42077943682670593
8896.262999999999,-0.24899697303771973,9.476250648498535,-2.075772762298584,8896.262999999999,-0.8894957900047302,0.07456851005554199,-0.3611246347427368
8898.793,-0.1149216815829277,9.224859237670898,-1.987187385559082,8898.793,-0.8948221206665039,0.07989483326673508,-0.3387540876865387
8903.852,-0.13168109953403473,9.651026725769043,-2.011129379272461,8903.852,-0.9022789597511292,0.10120011866092682,-0.2929477095603943
8908.913999999999,-0.44771572947502136,9.761159896850586,-1.8938134908676147,8908.913999999999,-0.8969526290893555,0.10865697264671326,-0.2833603322505951
8911.441,-0.27054479718208313,9.430760383605957,-1.7764976024627686,8911.441,-0.9171926975250244,0.1533980816602707,-0.28549087047576904
8959.502,0.6751648783683777,9.916783332824707,-1.6160861253738403,8959.502,-0.778708279132843,0.20240023732185364,-0.2545982003211975
8964.560000000001,0.6129156351089478,10.043676376342773,-1.525106430053711,8964.560000000001,-0.7637946009635925,0.18642127513885498,-0.24820661544799805
8972.149,-0.07182604819536209,8.882488250732422,-1.1540051698684692,8972.149,-0.8138620257377625,0.13102751970291138,-0.19600865244865417
8974.679,-0.07182604819536209,9.133879661560059,-1.2952631711959839,8974.679,-0.7659251093864441,0.11717908829450607,-0.1257012039422989
8979.738,0.1149216815829277,9.366117477416992,-1.0271124839782715,8979.738,-0.7286408543586731,0.08309062570333481,-0.011717909015715122
8984.795999999998,0.19632454216480255,9.816226959228516,-0.9481038451194763,8984.795999999998,-0.7510114312171936,0.07563377171754837,0.011717909015715122
8987.326,0.2801215946674347,9.68933391571045,-0.8738836050033569,8987.326,-0.7350324392318726,0.05326322093605995,0.001065264455974102
8992.385,0.22026655077934265,9.493009567260742,-0.8954314589500427,8992.385,-0.7467503547668457,0.044741105288267136,-0.008522115647792816
9075.858999999999,-0.19393034279346466,8.614337921142578,-0.6919242739677429,9075.858999999999,-0.8351672887802124,-0.12676647305488586,0.22157500684261322
9080.918,-0.1173158809542656,8.865729331970215,-0.7206547260284424,9080.918,-0.8617989420890808,-0.12463593482971191,0.2269013226032257
9083.448,0.11013327538967133,9.284713745117188,-0.6105214357376099,9083.448,-0.9161273837089539,-0.11185276508331299,0.20772656798362732
9088.506000000001,0.19632454216480255,9.394847869873047,-0.42856210470199585,9088.506000000001,-0.9257147908210754,-0.10865697264671326,0.19174759089946747
9091.037,0.42377370595932007,9.593565940856934,-0.45010992884635925,9091.037,-0.9310411214828491,-0.1022653877735138,0.14913702011108398
9096.095,0.5913678407669067,9.493009567260742,-0.3926490843296051,9096.095,-0.9203884601593018,-0.09161274135112762,0.1065264418721199
